# DES system throughputs
# source: ~Flaugher 2010.  Calculations by Huan Lin, Aug 2010.
# Preliminary: CFHT mirror reflectivity used, some assumptions made 
# about the qe, filters, correctors.# DES r

      3000.00      0.00000
      3005.00      0.00000
      3010.00      0.00000
      3015.00      0.00000
      3020.00      0.00000
      3025.00      0.00000
      3030.00      0.00000
      3035.00      0.00000
      3040.00      0.00000
      3045.00      0.00000
      3050.00      0.00000
      3055.00      0.00000
      3060.00      0.00000
      3065.00      0.00000
      3070.00      0.00000
      3075.00      0.00000
      3080.00      0.00000
      3085.00      0.00000
      3090.00      0.00000
      3095.00      0.00000
      3100.00      0.00000
      3105.00      0.00000
      3110.00      0.00000
      3115.00      0.00000
      3120.00      0.00000
      3125.00      0.00000
      3130.00      0.00000
      3135.00      0.00000
      3140.00      0.00000
      3145.00      0.00000
      3150.00      0.00000
      3155.00      0.00000
      3160.00      0.00000
      3165.00      0.00000
      3170.00      0.00000
      3175.00      0.00000
      3180.00      0.00000
      3185.00      0.00000
      3190.00      0.00000
      3195.00      0.00000
      3200.00      0.00000
      3205.00      0.00000
      3210.00      0.00000
      3215.00      0.00000
      3220.00      0.00000
      3225.00      0.00000
      3230.00      0.00000
      3235.00      0.00000
      3240.00      0.00000
      3245.00      0.00000
      3250.00      0.00000
      3255.00      0.00000
      3260.00      0.00000
      3265.00      0.00000
      3270.00      0.00000
      3275.00      0.00000
      3280.00      0.00000
      3285.00      0.00000
      3290.00      0.00000
      3295.00      0.00000
      3300.00      0.00000
      3305.00      0.00000
      3310.00      0.00000
      3315.00      0.00000
      3320.00      0.00000
      3325.00      0.00000
      3330.00      0.00000
      3335.00      0.00000
      3340.00      0.00000
      3345.00      0.00000
      3350.00      0.00000
      3355.00      0.00000
      3360.00      0.00000
      3365.00      0.00000
      3370.00      0.00000
      3375.00      0.00000
      3380.00      0.00000
      3385.00      0.00000
      3390.00      0.00000
      3395.00      0.00000
      3400.00      0.00000
      3405.00      0.00000
      3410.00      0.00000
      3415.00      0.00000
      3420.00      0.00000
      3425.00      0.00000
      3430.00      0.00000
      3435.00      0.00000
      3440.00      0.00000
      3445.00      0.00000
      3450.00      0.00000
      3455.00      0.00000
      3460.00      0.00000
      3465.00      0.00000
      3470.00      0.00000
      3475.00      0.00000
      3480.00      0.00000
      3485.00      0.00000
      3490.00      0.00000
      3495.00      0.00000
      3500.00      0.00000
      3505.00      0.00000
      3510.00      0.00000
      3515.00      0.00000
      3520.00      0.00000
      3525.00      0.00000
      3530.00      0.00000
      3535.00      0.00000
      3540.00      0.00000
      3545.00      0.00000
      3550.00      0.00000
      3555.00      0.00000
      3560.00      0.00000
      3565.00      0.00000
      3570.00      0.00000
      3575.00      0.00000
      3580.00      0.00000
      3585.00      0.00000
      3590.00      0.00000
      3595.00      0.00000
      3600.00      0.00000
      3605.00      0.00000
      3610.00      0.00000
      3615.00      0.00000
      3620.00      0.00000
      3625.00      0.00000
      3630.00      0.00000
      3635.00      0.00000
      3640.00      0.00000
      3645.00      0.00000
      3650.00      0.00000
      3655.00      0.00000
      3660.00      0.00000
      3665.00      0.00000
      3670.00      0.00000
      3675.00      0.00000
      3680.00      0.00000
      3685.00      0.00000
      3690.00      0.00000
      3695.00      0.00000
      3700.00      0.00000
      3705.00      0.00000
      3710.00      0.00000
      3715.00      0.00000
      3720.00      0.00000
      3725.00      0.00000
      3730.00      0.00000
      3735.00      0.00000
      3740.00      0.00000
      3745.00      0.00000
      3750.00      0.00000
      3755.00      0.00000
      3760.00      0.00000
      3765.00      0.00000
      3770.00      0.00000
      3775.00      0.00000
      3780.00      0.00000
      3785.00      0.00000
      3790.00      0.00000
      3795.00      0.00000
      3800.00      0.00000
      3805.00      0.00000
      3810.00      0.00000
      3815.00      0.00000
      3820.00      0.00000
      3825.00      0.00000
      3830.00      0.00000
      3835.00      0.00000
      3840.00      0.00000
      3845.00      0.00000
      3850.00      0.00000
      3855.00      0.00000
      3860.00      0.00000
      3865.00      0.00000
      3870.00      0.00000
      3875.00      0.00000
      3880.00      0.00000
      3885.00      0.00000
      3890.00      0.00000
      3895.00      0.00000
      3900.00      0.00000
      3905.00      0.00000
      3910.00      0.00000
      3915.00      0.00000
      3920.00      0.00000
      3925.00      0.00000
      3930.00      0.00000
      3935.00      0.00000
      3940.00      0.00000
      3945.00      0.00000
      3950.00      0.00000
      3955.00      0.00000
      3960.00      0.00000
      3965.00      0.00000
      3970.00      0.00000
      3975.00      0.00000
      3980.00      0.00000
      3985.00      0.00000
      3990.00      0.00000
      3995.00      0.00000
      4000.00      0.00000
      4005.00      0.00000
      4010.00      0.00000
      4015.00      0.00000
      4020.00      0.00000
      4025.00      0.00000
      4030.00      0.00000
      4035.00      0.00000
      4040.00      0.00000
      4045.00      0.00000
      4050.00      0.00000
      4055.00      0.00000
      4060.00      0.00000
      4065.00      0.00000
      4070.00      0.00000
      4075.00      0.00000
      4080.00      0.00000
      4085.00      0.00000
      4090.00      0.00000
      4095.00      0.00000
      4100.00      0.00000
      4105.00      0.00000
      4110.00      0.00000
      4115.00      0.00000
      4120.00      0.00000
      4125.00      0.00000
      4130.00      0.00000
      4135.00      0.00000
      4140.00      0.00000
      4145.00      0.00000
      4150.00      0.00000
      4155.00      0.00000
      4160.00      0.00000
      4165.00      0.00000
      4170.00      0.00000
      4175.00      0.00000
      4180.00      0.00000
      4185.00      0.00000
      4190.00      0.00000
      4195.00      0.00000
      4200.00      0.00000
      4205.00      0.00000
      4210.00      0.00000
      4215.00      0.00000
      4220.00      0.00000
      4225.00      0.00000
      4230.00      0.00000
      4235.00      0.00000
      4240.00      0.00000
      4245.00      0.00000
      4250.00      0.00000
      4255.00      0.00000
      4260.00      0.00000
      4265.00      0.00000
      4270.00      0.00000
      4275.00      0.00000
      4280.00      0.00000
      4285.00      0.00000
      4290.00      0.00000
      4295.00      0.00000
      4300.00      0.00000
      4305.00      0.00000
      4310.00      0.00000
      4315.00      0.00000
      4320.00      0.00000
      4325.00      0.00000
      4330.00      0.00000
      4335.00      0.00000
      4340.00      0.00000
      4345.00      0.00000
      4350.00      0.00000
      4355.00      0.00000
      4360.00      0.00000
      4365.00      0.00000
      4370.00      0.00000
      4375.00      0.00000
      4380.00      0.00000
      4385.00      0.00000
      4390.00      0.00000
      4395.00      0.00000
      4400.00      0.00000
      4405.00      0.00000
      4410.00      0.00000
      4415.00      0.00000
      4420.00      0.00000
      4425.00      0.00000
      4430.00      0.00000
      4435.00      0.00000
      4440.00      0.00000
      4445.00      0.00000
      4450.00      0.00000
      4455.00      0.00000
      4460.00      0.00000
      4465.00      0.00000
      4470.00      0.00000
      4475.00      0.00000
      4480.00      0.00000
      4485.00      0.00000
      4490.00      0.00000
      4495.00      0.00000
      4500.00      0.00000
      4505.00      0.00000
      4510.00      0.00000
      4515.00      0.00000
      4520.00      0.00000
      4525.00      0.00000
      4530.00      0.00000
      4535.00      0.00000
      4540.00      0.00000
      4545.00      0.00000
      4550.00      0.00000
      4555.00      0.00000
      4560.00      0.00000
      4565.00      0.00000
      4570.00      0.00000
      4575.00      0.00000
      4580.00      0.00000
      4585.00      0.00000
      4590.00      0.00000
      4595.00      0.00000
      4600.00      0.00000
      4605.00      0.00000
      4610.00      0.00000
      4615.00      0.00000
      4620.00      0.00000
      4625.00      0.00000
      4630.00      0.00000
      4635.00      0.00000
      4640.00      0.00000
      4645.00      0.00000
      4650.00      0.00000
      4655.00      0.00000
      4660.00      0.00000
      4665.00      0.00000
      4670.00      0.00000
      4675.00      0.00000
      4680.00      0.00000
      4685.00      0.00000
      4690.00      0.00000
      4695.00      0.00000
      4700.00      0.00000
      4705.00      0.00000
      4710.00      0.00000
      4715.00      0.00000
      4720.00      0.00000
      4725.00      0.00000
      4730.00      0.00000
      4735.00      0.00000
      4740.00      0.00000
      4745.00      0.00000
      4750.00      0.00000
      4755.00      0.00000
      4760.00      0.00000
      4765.00      0.00000
      4770.00      0.00000
      4775.00      0.00000
      4780.00      0.00000
      4785.00      0.00000
      4790.00      0.00000
      4795.00      0.00000
      4800.00      0.00000
      4805.00      0.00000
      4810.00      0.00000
      4815.00      0.00000
      4820.00      0.00000
      4825.00      0.00000
      4830.00      0.00000
      4835.00      0.00000
      4840.00      0.00000
      4845.00      0.00000
      4850.00      0.00000
      4855.00      0.00000
      4860.00      0.00000
      4865.00      0.00000
      4870.00      0.00000
      4875.00      0.00000
      4880.00      0.00000
      4885.00      0.00000
      4890.00      0.00000
      4895.00      0.00000
      4900.00      0.00000
      4905.00      0.00000
      4910.00      0.00000
      4915.00      0.00000
      4920.00      0.00000
      4925.00      0.00000
      4930.00      0.00000
      4935.00      0.00000
      4940.00      0.00000
      4945.00      0.00000
      4950.00      0.00000
      4955.00      0.00000
      4960.00      0.00000
      4965.00      0.00000
      4970.00      0.00000
      4975.00      0.00000
      4980.00      0.00000
      4985.00      0.00000
      4990.00      0.00000
      4995.00      0.00000
      5000.00      0.00000
      5005.00      0.00000
      5010.00      0.00000
      5015.00      0.00000
      5020.00      0.00000
      5025.00      0.00000
      5030.00      0.00000
      5035.00      0.00000
      5040.00      0.00000
      5045.00      0.00000
      5050.00      0.00000
      5055.00      0.00000
      5060.00      0.00000
      5065.00      0.00000
      5070.00      0.00000
      5075.00      0.00000
      5080.00      0.00000
      5085.00      0.00000
      5090.00      0.00000
      5095.00      0.00000
      5100.00      0.00000
      5105.00      0.00000
      5110.00      0.00000
      5115.00      0.00000
      5120.00      0.00000
      5125.00      0.00000
      5130.00      0.00000
      5135.00      0.00000
      5140.00      0.00000
      5145.00      0.00000
      5150.00      0.00000
      5155.00      0.00000
      5160.00      0.00000
      5165.00      0.00000
      5170.00      0.00000
      5175.00      0.00000
      5180.00      0.00000
      5185.00      0.00000
      5190.00      0.00000
      5195.00      0.00000
      5200.00      0.00000
      5205.00      0.00000
      5210.00      0.00000
      5215.00      0.00000
      5220.00      0.00000
      5225.00      0.00000
      5230.00      0.00000
      5235.00      0.00000
      5240.00      0.00000
      5245.00      0.00000
      5250.00      0.00000
      5255.00      0.00000
      5260.00      0.00000
      5265.00      0.00000
      5270.00      0.00000
      5275.00      0.00000
      5280.00      0.00000
      5285.00      0.00000
      5290.00      0.00000
      5295.00      0.00000
      5300.00      0.00000
      5305.00      0.00000
      5310.00      0.00000
      5315.00      0.00000
      5320.00      0.00000
      5325.00      0.00000
      5330.00      0.00000
      5335.00      0.00000
      5340.00      0.00000
      5345.00      0.00000
      5350.00      0.00000
      5355.00      0.00000
      5360.00      0.00000
      5365.00      0.00000
      5370.00      0.00000
      5375.00      0.00000
      5380.00      0.00000
      5385.00      0.00000
      5390.00      0.00000
      5395.00      0.00000
      5400.00      0.00000
      5405.00      0.00000
      5410.00      0.00000
      5415.00      0.00000
      5420.00      0.00000
      5425.00  1.00000e-05
      5430.00  1.00000e-05
      5435.00  1.00000e-05
      5440.00  1.00000e-05
      5445.00  1.00000e-05
      5450.00  1.00000e-05
      5455.00  1.00000e-05
      5460.00  1.00000e-05
      5465.00  1.00000e-05
      5470.00  1.00000e-05
      5475.00  2.00000e-05
      5480.00  2.00000e-05
      5485.00  2.00000e-05
      5490.00  3.00000e-05
      5495.00  3.00000e-05
      5500.00  4.00000e-05
      5505.00  4.00000e-05
      5510.00  5.00000e-05
      5515.00  6.00000e-05
      5520.00  7.00000e-05
      5525.00  8.00000e-05
      5530.00  0.000100000
      5535.00  0.000120000
      5540.00  0.000140000
      5545.00  0.000170000
      5550.00  0.000210000
      5555.00  0.000260000
      5560.00  0.000320000
      5565.00  0.000400000
      5570.00  0.000510000
      5575.00  0.000640000
      5580.00  0.000810000
      5585.00   0.00105000
      5590.00   0.00136000
      5595.00   0.00177000
      5600.00   0.00233000
      5605.00   0.00310000
      5610.00   0.00415000
      5615.00   0.00564000
      5620.00   0.00773000
      5625.00    0.0106300
      5630.00    0.0148700
      5635.00    0.0209100
      5640.00    0.0293900
      5645.00    0.0416000
      5650.00    0.0587100
      5655.00    0.0815400
      5660.00     0.111400
      5665.00     0.147330
      5670.00     0.188170
      5675.00     0.231260
      5680.00     0.273550
      5685.00     0.311000
      5690.00     0.340970
      5695.00     0.364160
      5700.00     0.379710
      5705.00     0.389890
      5710.00     0.396430
      5715.00     0.400580
      5720.00     0.403260
      5725.00     0.405010
      5730.00     0.406240
      5735.00     0.406890
      5740.00     0.407190
      5745.00     0.407250
      5750.00     0.406950
      5755.00     0.406460
      5760.00     0.405820
      5765.00     0.405080
      5770.00     0.404410
      5775.00     0.403720
      5780.00     0.403210
      5785.00     0.402890
      5790.00     0.402820
      5795.00     0.402990
      5800.00     0.403470
      5805.00     0.404200
      5810.00     0.405120
      5815.00     0.406230
      5820.00     0.407400
      5825.00     0.408550
      5830.00     0.409680
      5835.00     0.410780
      5840.00     0.411720
      5845.00     0.412510
      5850.00     0.413120
      5855.00     0.413530
      5860.00     0.413800
      5865.00     0.413870
      5870.00     0.413770
      5875.00     0.413590
      5880.00     0.413330
      5885.00     0.413040
      5890.00     0.412740
      5895.00     0.412430
      5900.00     0.412290
      5905.00     0.412200
      5910.00     0.412210
      5915.00     0.412450
      5920.00     0.412840
      5925.00     0.413390
      5930.00     0.414120
      5935.00     0.414990
      5940.00     0.415960
      5945.00     0.416950
      5950.00     0.417970
      5955.00     0.419060
      5960.00     0.420130
      5965.00     0.421160
      5970.00     0.422090
      5975.00     0.423030
      5980.00     0.423870
      5985.00     0.424600
      5990.00     0.425190
      5995.00     0.425930
      6000.00     0.426480
      6005.00     0.427150
      6010.00     0.427760
      6015.00     0.428390
      6020.00     0.428980
      6025.00     0.429520
      6030.00     0.430070
      6035.00     0.430550
      6040.00     0.430950
      6045.00     0.431270
      6050.00     0.431470
      6055.00     0.431570
      6060.00     0.431550
      6065.00     0.431490
      6070.00     0.431370
      6075.00     0.431110
      6080.00     0.430820
      6085.00     0.430480
      6090.00     0.430100
      6095.00     0.429770
      6100.00     0.429520
      6105.00     0.429310
      6110.00     0.429260
      6115.00     0.429460
      6120.00     0.429850
      6125.00     0.430360
      6130.00     0.431060
      6135.00     0.431940
      6140.00     0.432940
      6145.00     0.434000
      6150.00     0.435150
      6155.00     0.436430
      6160.00     0.437720
      6165.00     0.438910
      6170.00     0.439970
      6175.00     0.440920
      6180.00     0.442000
      6185.00     0.442780
      6190.00     0.443410
      6195.00     0.443950
      6200.00     0.444400
      6205.00     0.444620
      6210.00     0.444790
      6215.00     0.445000
      6220.00     0.445190
      6225.00     0.445380
      6230.00     0.445630
      6235.00     0.445960
      6240.00     0.446370
      6245.00     0.446820
      6250.00     0.447280
      6255.00     0.447790
      6260.00     0.448350
      6265.00     0.448860
      6270.00     0.449310
      6275.00     0.449650
      6280.00     0.449930
      6285.00     0.450130
      6290.00     0.450250
      6295.00     0.450250
      6300.00     0.450190
      6305.00     0.450070
      6310.00     0.449920
      6315.00     0.449760
      6320.00     0.449600
      6325.00     0.449420
      6330.00     0.449360
      6335.00     0.449260
      6340.00     0.449270
      6345.00     0.449450
      6350.00     0.449750
      6355.00     0.450060
      6360.00     0.450410
      6365.00     0.451060
      6370.00     0.451660
      6375.00     0.452300
      6380.00     0.452980
      6385.00     0.453680
      6390.00     0.454380
      6395.00     0.455070
      6400.00     0.455760
      6405.00     0.456240
      6410.00     0.456680
      6415.00     0.457150
      6420.00     0.457560
      6425.00     0.457900
      6430.00     0.458250
      6435.00     0.458650
      6440.00     0.459070
      6445.00     0.459380
      6450.00     0.459790
      6455.00     0.460170
      6460.00     0.460570
      6465.00     0.460950
      6470.00     0.461360
      6475.00     0.461840
      6480.00     0.462330
      6485.00     0.462720
      6490.00     0.463140
      6495.00     0.463440
      6500.00     0.463780
      6505.00     0.463980
      6510.00     0.464120
      6515.00     0.464290
      6520.00     0.464470
      6525.00     0.464550
      6530.00     0.464700
      6535.00     0.464880
      6540.00     0.465030
      6545.00     0.465180
      6550.00     0.465470
      6555.00     0.465790
      6560.00     0.466210
      6565.00     0.466710
      6570.00     0.467240
      6575.00     0.467870
      6580.00     0.468590
      6585.00     0.469350
      6590.00     0.470110
      6595.00     0.470860
      6600.00     0.471570
      6605.00     0.472290
      6610.00     0.472940
      6615.00     0.473590
      6620.00     0.474200
      6625.00     0.474700
      6630.00     0.475100
      6635.00     0.475500
      6640.00     0.475830
      6645.00     0.476080
      6650.00     0.476320
      6655.00     0.476520
      6660.00     0.476790
      6665.00     0.476940
      6670.00     0.477110
      6675.00     0.477370
      6680.00     0.477620
      6685.00     0.477830
      6690.00     0.478070
      6695.00     0.478460
      6700.00     0.478790
      6705.00     0.479200
      6710.00     0.479530
      6715.00     0.480020
      6720.00     0.480570
      6725.00     0.480930
      6730.00     0.481260
      6735.00     0.481600
      6740.00     0.481860
      6745.00     0.481990
      6750.00     0.482080
      6755.00     0.482150
      6760.00     0.482190
      6765.00     0.482180
      6770.00     0.482140
      6775.00     0.482080
      6780.00     0.482030
      6785.00     0.482070
      6790.00     0.482120
      6795.00     0.482260
      6800.00     0.482430
      6805.00     0.482740
      6810.00     0.483100
      6815.00     0.483530
      6820.00     0.484090
      6825.00     0.481090
      6830.00     0.478210
      6835.00     0.475360
      6840.00     0.472550
      6845.00     0.469650
      6850.00     0.466790
      6855.00     0.464000
      6860.00     0.461140
      6865.00     0.458200
      6870.00     0.455220
      6875.00     0.452150
      6880.00     0.449090
      6885.00     0.451700
      6890.00     0.454240
      6895.00     0.456790
      6900.00     0.459330
      6905.00     0.461880
      6910.00     0.464460
      6915.00     0.466970
      6920.00     0.469460
      6925.00     0.471970
      6930.00     0.474530
      6935.00     0.477030
      6940.00     0.479510
      6945.00     0.482040
      6950.00     0.484490
      6955.00     0.487010
      6960.00     0.489500
      6965.00     0.491960
      6970.00     0.494420
      6975.00     0.496960
      6980.00     0.499400
      6985.00     0.499710
      6990.00     0.499980
      6995.00     0.500270
      7000.00     0.500540
      7005.00     0.500580
      7010.00     0.500610
      7015.00     0.500580
      7020.00     0.500500
      7025.00     0.500360
      7030.00     0.499930
      7035.00     0.499330
      7040.00     0.498090
      7045.00     0.495880
      7050.00     0.491880
      7055.00     0.485750
      7060.00     0.475740
      7065.00     0.460510
      7070.00     0.439540
      7075.00     0.410820
      7080.00     0.374960
      7085.00     0.333790
      7090.00     0.288220
      7095.00     0.242300
      7100.00     0.198210
      7105.00     0.158020
      7110.00     0.123610
      7115.00    0.0951600
      7120.00    0.0731000
      7125.00    0.0556100
      7130.00    0.0423000
      7135.00    0.0324300
      7140.00    0.0248700
      7145.00    0.0189000
      7150.00    0.0145200
      7155.00    0.0112100
      7160.00   0.00874000
      7165.00   0.00686000
      7170.00   0.00541000
      7175.00   0.00430000
      7180.00   0.00343000
      7185.00   0.00282000
      7190.00   0.00233000
      7195.00   0.00193000
      7200.00   0.00162000
      7205.00   0.00135000
      7210.00   0.00114000
      7215.00  0.000960000
      7220.00  0.000820000
      7225.00  0.000690000
      7230.00  0.000590000
      7235.00  0.000500000
      7240.00  0.000430000
      7245.00  0.000360000
      7250.00  0.000310000
      7255.00  0.000270000
      7260.00  0.000230000
      7265.00  0.000200000
      7270.00  0.000170000
      7275.00  0.000150000
      7280.00  0.000130000
      7285.00  0.000110000
      7290.00  9.00000e-05
      7295.00  8.00000e-05
      7300.00  7.00000e-05
      7305.00  6.00000e-05
      7310.00  5.00000e-05
      7315.00  5.00000e-05
      7320.00  4.00000e-05
      7325.00  4.00000e-05
      7330.00  3.00000e-05
      7335.00  3.00000e-05
      7340.00  2.00000e-05
      7345.00  2.00000e-05
      7350.00  2.00000e-05
      7355.00  2.00000e-05
      7360.00  2.00000e-05
      7365.00  1.00000e-05
      7370.00  1.00000e-05
      7375.00  1.00000e-05
      7380.00  1.00000e-05
      7385.00  1.00000e-05
      7390.00  1.00000e-05
      7395.00  1.00000e-05
      7400.00  1.00000e-05
      7405.00      0.00000
      7410.00  1.00000e-05
      7415.00  1.00000e-05
      7420.00  1.00000e-05
      7425.00      0.00000
      7430.00      0.00000
      7435.00      0.00000
      7440.00      0.00000
      7445.00      0.00000
      7450.00      0.00000
      7455.00      0.00000
      7460.00      0.00000
      7465.00      0.00000
      7470.00      0.00000
      7475.00      0.00000
      7480.00      0.00000
      7485.00      0.00000
      7490.00      0.00000
      7495.00      0.00000
      7500.00      0.00000
      7505.00      0.00000
      7510.00      0.00000
      7515.00      0.00000
      7520.00      0.00000
      7525.00      0.00000
      7530.00      0.00000
      7535.00      0.00000
      7540.00      0.00000
      7545.00      0.00000
      7550.00      0.00000
      7555.00      0.00000
      7560.00      0.00000
      7565.00      0.00000
      7570.00      0.00000
      7575.00      0.00000
      7580.00      0.00000
      7585.00      0.00000
      7590.00      0.00000
      7595.00      0.00000
      7600.00      0.00000
      7605.00      0.00000
      7610.00      0.00000
      7615.00      0.00000
      7620.00      0.00000
      7625.00      0.00000
      7630.00      0.00000
      7635.00      0.00000
      7640.00      0.00000
      7645.00      0.00000
      7650.00      0.00000
      7655.00      0.00000
      7660.00      0.00000
      7665.00      0.00000
      7670.00      0.00000
      7675.00      0.00000
      7680.00      0.00000
      7685.00      0.00000
      7690.00      0.00000
      7695.00      0.00000
      7700.00      0.00000
      7705.00      0.00000
      7710.00      0.00000
      7715.00      0.00000
      7720.00      0.00000
      7725.00      0.00000
      7730.00      0.00000
      7735.00      0.00000
      7740.00      0.00000
      7745.00      0.00000
      7750.00      0.00000
      7755.00      0.00000
      7760.00      0.00000
      7765.00      0.00000
      7770.00      0.00000
      7775.00      0.00000
      7780.00      0.00000
      7785.00      0.00000
      7790.00      0.00000
      7795.00      0.00000
      7800.00      0.00000
      7805.00      0.00000
      7810.00      0.00000
      7815.00      0.00000
      7820.00      0.00000
      7825.00      0.00000
      7830.00      0.00000
      7835.00      0.00000
      7840.00      0.00000
      7845.00      0.00000
      7850.00      0.00000
      7855.00      0.00000
      7860.00      0.00000
      7865.00      0.00000
      7870.00      0.00000
      7875.00      0.00000
      7880.00      0.00000
      7885.00      0.00000
      7890.00      0.00000
      7895.00      0.00000
      7900.00      0.00000
      7905.00      0.00000
      7910.00      0.00000
      7915.00      0.00000
      7920.00      0.00000
      7925.00      0.00000
      7930.00      0.00000
      7935.00      0.00000
      7940.00      0.00000
      7945.00      0.00000
      7950.00      0.00000
      7955.00      0.00000
      7960.00      0.00000
      7965.00      0.00000
      7970.00      0.00000
      7975.00      0.00000
      7980.00      0.00000
      7985.00      0.00000
      7990.00      0.00000
      7995.00      0.00000
      8000.00      0.00000
      8005.00      0.00000
      8010.00      0.00000
      8015.00      0.00000
      8020.00      0.00000
      8025.00      0.00000
      8030.00      0.00000
      8035.00      0.00000
      8040.00      0.00000
      8045.00      0.00000
      8050.00      0.00000
      8055.00      0.00000
      8060.00      0.00000
      8065.00      0.00000
      8070.00      0.00000
      8075.00      0.00000
      8080.00      0.00000
      8085.00      0.00000
      8090.00      0.00000
      8095.00      0.00000
      8100.00      0.00000
      8105.00      0.00000
      8110.00      0.00000
      8115.00      0.00000
      8120.00      0.00000
      8125.00      0.00000
      8130.00      0.00000
      8135.00      0.00000
      8140.00      0.00000
      8145.00      0.00000
      8150.00      0.00000
      8155.00      0.00000
      8160.00      0.00000
      8165.00      0.00000
      8170.00      0.00000
      8175.00      0.00000
      8180.00      0.00000
      8185.00      0.00000
      8190.00      0.00000
      8195.00      0.00000
      8200.00      0.00000
      8205.00      0.00000
      8210.00      0.00000
      8215.00      0.00000
      8220.00      0.00000
      8225.00      0.00000
      8230.00      0.00000
      8235.00      0.00000
      8240.00      0.00000
      8245.00      0.00000
      8250.00      0.00000
      8255.00      0.00000
      8260.00      0.00000
      8265.00      0.00000
      8270.00      0.00000
      8275.00      0.00000
      8280.00      0.00000
      8285.00      0.00000
      8290.00      0.00000
      8295.00      0.00000
      8300.00      0.00000
      8305.00      0.00000
      8310.00      0.00000
      8315.00      0.00000
      8320.00      0.00000
      8325.00      0.00000
      8330.00      0.00000
      8335.00      0.00000
      8340.00      0.00000
      8345.00      0.00000
      8350.00      0.00000
      8355.00      0.00000
      8360.00      0.00000
      8365.00      0.00000
      8370.00      0.00000
      8375.00      0.00000
      8380.00      0.00000
      8385.00      0.00000
      8390.00      0.00000
      8395.00      0.00000
      8400.00      0.00000
      8405.00      0.00000
      8410.00      0.00000
      8415.00      0.00000
      8420.00      0.00000
      8425.00      0.00000
      8430.00      0.00000
      8435.00      0.00000
      8440.00      0.00000
      8445.00      0.00000
      8450.00      0.00000
      8455.00      0.00000
      8460.00      0.00000
      8465.00      0.00000
      8470.00      0.00000
      8475.00      0.00000
      8480.00      0.00000
      8485.00      0.00000
      8490.00      0.00000
      8495.00      0.00000
      8500.00      0.00000
      8505.00      0.00000
      8510.00      0.00000
      8515.00      0.00000
      8520.00      0.00000
      8525.00      0.00000
      8530.00      0.00000
      8535.00      0.00000
      8540.00      0.00000
      8545.00      0.00000
      8550.00      0.00000
      8555.00      0.00000
      8560.00      0.00000
      8565.00      0.00000
      8570.00      0.00000
      8575.00      0.00000
      8580.00      0.00000
      8585.00      0.00000
      8590.00      0.00000
      8595.00      0.00000
      8600.00      0.00000
      8605.00      0.00000
      8610.00      0.00000
      8615.00      0.00000
      8620.00      0.00000
      8625.00      0.00000
      8630.00      0.00000
      8635.00      0.00000
      8640.00      0.00000
      8645.00      0.00000
      8650.00      0.00000
      8655.00      0.00000
      8660.00      0.00000
      8665.00      0.00000
      8670.00      0.00000
      8675.00      0.00000
      8680.00      0.00000
      8685.00      0.00000
      8690.00      0.00000
      8695.00      0.00000
      8700.00      0.00000
      8705.00      0.00000
      8710.00      0.00000
      8715.00      0.00000
      8720.00      0.00000
      8725.00      0.00000
      8730.00      0.00000
      8735.00      0.00000
      8740.00      0.00000
      8745.00      0.00000
      8750.00      0.00000
      8755.00      0.00000
      8760.00      0.00000
      8765.00      0.00000
      8770.00      0.00000
      8775.00      0.00000
      8780.00      0.00000
      8785.00      0.00000
      8790.00      0.00000
      8795.00      0.00000
      8800.00      0.00000
      8805.00      0.00000
      8810.00      0.00000
      8815.00      0.00000
      8820.00      0.00000
      8825.00      0.00000
      8830.00      0.00000
      8835.00      0.00000
      8840.00      0.00000
      8845.00      0.00000
      8850.00      0.00000
      8855.00      0.00000
      8860.00      0.00000
      8865.00      0.00000
      8870.00      0.00000
      8875.00      0.00000
      8880.00      0.00000
      8885.00      0.00000
      8890.00      0.00000
      8895.00      0.00000
      8900.00      0.00000
      8905.00      0.00000
      8910.00      0.00000
      8915.00      0.00000
      8920.00      0.00000
      8925.00      0.00000
      8930.00      0.00000
      8935.00      0.00000
      8940.00      0.00000
      8945.00      0.00000
      8950.00      0.00000
      8955.00      0.00000
      8960.00      0.00000
      8965.00      0.00000
      8970.00      0.00000
      8975.00      0.00000
      8980.00      0.00000
      8985.00      0.00000
      8990.00      0.00000
      8995.00      0.00000
      9000.00  2.00000e-05
      9005.00  2.00000e-05
      9010.00  2.00000e-05
      9015.00  2.00000e-05
      9020.00  2.00000e-05
      9025.00  2.00000e-05
      9030.00  2.00000e-05
      9035.00  2.00000e-05
      9040.00  2.00000e-05
      9045.00  2.00000e-05
      9050.00  2.00000e-05
      9055.00  2.00000e-05
      9060.00  2.00000e-05
      9065.00  2.00000e-05
      9070.00  2.00000e-05
      9075.00  2.00000e-05
      9080.00  2.00000e-05
      9085.00  2.00000e-05
      9090.00  2.00000e-05
      9095.00  2.00000e-05
      9100.00  2.00000e-05
      9105.00  2.00000e-05
      9110.00  2.00000e-05
      9115.00  2.00000e-05
      9120.00  2.00000e-05
      9125.00  2.00000e-05
      9130.00  2.00000e-05
      9135.00  2.00000e-05
      9140.00  2.00000e-05
      9145.00  2.00000e-05
      9150.00  2.00000e-05
      9155.00  1.00000e-05
      9160.00  2.00000e-05
      9165.00  2.00000e-05
      9170.00  2.00000e-05
      9175.00  2.00000e-05
      9180.00  2.00000e-05
      9185.00  2.00000e-05
      9190.00  2.00000e-05
      9195.00  2.00000e-05
      9200.00  2.00000e-05
      9205.00  2.00000e-05
      9210.00  2.00000e-05
      9215.00  2.00000e-05
      9220.00  2.00000e-05
      9225.00  2.00000e-05
      9230.00  2.00000e-05
      9235.00  2.00000e-05
      9240.00  2.00000e-05
      9245.00  2.00000e-05
      9250.00  2.00000e-05
      9255.00  2.00000e-05
      9260.00  2.00000e-05
      9265.00  2.00000e-05
      9270.00  2.00000e-05
      9275.00  2.00000e-05
      9280.00  2.00000e-05
      9285.00  1.00000e-05
      9290.00  2.00000e-05
      9295.00  1.00000e-05
      9300.00  1.00000e-05
      9305.00  1.00000e-05
      9310.00  1.00000e-05
      9315.00  1.00000e-05
      9320.00  1.00000e-05
      9325.00  1.00000e-05
      9330.00  1.00000e-05
      9335.00  1.00000e-05
      9340.00  1.00000e-05
      9345.00  1.00000e-05
      9350.00  1.00000e-05
      9355.00  1.00000e-05
      9360.00  1.00000e-05
      9365.00  1.00000e-05
      9370.00  1.00000e-05
      9375.00  1.00000e-05
      9380.00  1.00000e-05
      9385.00  1.00000e-05
      9390.00  1.00000e-05
      9395.00  1.00000e-05
      9400.00  1.00000e-05
      9405.00  1.00000e-05
      9410.00  1.00000e-05
      9415.00  1.00000e-05
      9420.00  1.00000e-05
      9425.00  1.00000e-05
      9430.00  1.00000e-05
      9435.00  1.00000e-05
      9440.00  1.00000e-05
      9445.00  1.00000e-05
      9450.00  1.00000e-05
      9455.00  1.00000e-05
      9460.00  1.00000e-05
      9465.00  1.00000e-05
      9470.00  1.00000e-05
      9475.00  1.00000e-05
      9480.00  1.00000e-05
      9485.00  1.00000e-05
      9490.00  1.00000e-05
      9495.00  1.00000e-05
      9500.00  1.00000e-05
      9505.00  1.00000e-05
      9510.00  1.00000e-05
      9515.00  1.00000e-05
      9520.00  1.00000e-05
      9525.00  1.00000e-05
      9530.00  1.00000e-05
      9535.00  1.00000e-05
      9540.00  1.00000e-05
      9545.00  1.00000e-05
      9550.00  1.00000e-05
      9555.00  1.00000e-05
      9560.00  1.00000e-05
      9565.00  1.00000e-05
      9570.00  1.00000e-05
      9575.00  1.00000e-05
      9580.00  1.00000e-05
      9585.00  1.00000e-05
      9590.00  1.00000e-05
      9595.00  1.00000e-05
      9600.00  1.00000e-05
      9605.00  1.00000e-05
      9610.00  2.00000e-05
      9615.00  1.00000e-05
      9620.00  1.00000e-05
      9625.00  1.00000e-05
      9630.00  1.00000e-05
      9635.00  1.00000e-05
      9640.00  1.00000e-05
      9645.00  1.00000e-05
      9650.00  1.00000e-05
      9655.00  2.00000e-05
      9660.00  1.00000e-05
      9665.00  1.00000e-05
      9670.00  1.00000e-05
      9675.00  1.00000e-05
      9680.00  2.00000e-05
      9685.00  2.00000e-05
      9690.00  2.00000e-05
      9695.00  2.00000e-05
      9700.00  2.00000e-05
      9705.00  2.00000e-05
      9710.00  4.00000e-05
      9715.00  5.00000e-05
      9720.00  2.00000e-05
      9725.00  2.00000e-05
      9730.00  1.00000e-05
      9735.00  1.00000e-05
      9740.00  2.00000e-05
      9745.00  1.00000e-05
      9750.00  1.00000e-05
      9755.00  1.00000e-05
      9760.00  1.00000e-05
      9765.00  1.00000e-05
      9770.00  2.00000e-05
      9775.00  1.00000e-05
      9780.00  1.00000e-05
      9785.00  1.00000e-05
      9790.00  1.00000e-05
      9795.00  1.00000e-05
      9800.00  1.00000e-05
      9805.00  1.00000e-05
      9810.00  1.00000e-05
      9815.00  2.00000e-05
      9820.00  1.00000e-05
      9825.00  1.00000e-05
      9830.00  1.00000e-05
      9835.00  1.00000e-05
      9840.00  1.00000e-05
      9845.00  1.00000e-05
      9850.00  1.00000e-05
      9855.00  1.00000e-05
      9860.00  2.00000e-05
      9865.00  1.00000e-05
      9870.00  1.00000e-05
      9875.00  1.00000e-05
      9880.00  2.00000e-05
      9885.00  1.00000e-05
      9890.00  1.00000e-05
      9895.00  1.00000e-05
      9900.00  1.00000e-05
      9905.00  1.00000e-05
      9910.00  1.00000e-05
      9915.00  1.00000e-05
      9920.00  1.00000e-05
      9925.00  1.00000e-05
      9930.00  1.00000e-05
      9935.00  1.00000e-05
      9940.00  1.00000e-05
      9945.00  1.00000e-05
      9950.00  1.00000e-05
      9955.00  1.00000e-05
      9960.00  2.00000e-05
      9965.00  1.00000e-05
      9970.00  1.00000e-05
      9975.00  2.00000e-05
      9980.00  2.00000e-05
      9985.00  2.00000e-05
      9990.00  2.00000e-05
      9995.00  2.00000e-05
      10000.0  2.00000e-05
      10005.0  1.00000e-05
      10010.0  1.00000e-05
      10015.0  1.00000e-05
      10020.0  1.00000e-05
      10025.0  1.00000e-05
      10030.0  1.00000e-05
      10035.0  1.00000e-05
      10040.0  1.00000e-05
      10045.0  1.00000e-05
      10050.0  1.00000e-05
      10055.0  1.00000e-05
      10060.0  1.00000e-05
      10065.0  1.00000e-05
      10070.0  1.00000e-05
      10075.0  1.00000e-05
      10080.0  1.00000e-05
      10085.0  1.00000e-05
      10090.0  1.00000e-05
      10095.0  1.00000e-05
      10100.0  1.00000e-05
      10105.0  1.00000e-05
      10110.0  1.00000e-05
      10115.0  1.00000e-05
      10120.0  1.00000e-05
      10125.0  1.00000e-05
      10130.0  1.00000e-05
      10135.0  1.00000e-05
      10140.0  1.00000e-05
      10145.0  1.00000e-05
      10150.0  1.00000e-05
      10155.0  1.00000e-05
      10160.0  1.00000e-05
      10165.0  1.00000e-05
      10170.0  1.00000e-05
      10175.0  1.00000e-05
      10180.0  1.00000e-05
      10185.0  1.00000e-05
      10190.0  1.00000e-05
      10195.0  1.00000e-05
      10200.0  1.00000e-05
      10205.0  1.00000e-05
      10210.0  1.00000e-05
      10215.0  1.00000e-05
      10220.0  1.00000e-05
      10225.0  1.00000e-05
      10230.0  1.00000e-05
      10235.0  1.00000e-05
      10240.0  1.00000e-05
      10245.0  1.00000e-05
      10250.0  1.00000e-05
      10255.0  1.00000e-05
      10260.0  1.00000e-05
      10265.0  1.00000e-05
      10270.0  1.00000e-05
      10275.0      0.00000
      10280.0  1.00000e-05
      10285.0  1.00000e-05
      10290.0  1.00000e-05
      10295.0      0.00000
      10300.0  1.00000e-05
      10305.0  1.00000e-05
      10310.0  1.00000e-05
      10315.0  1.00000e-05
      10320.0      0.00000
      10325.0  1.00000e-05
      10330.0  1.00000e-05
      10335.0  1.00000e-05
      10340.0  1.00000e-05
      10345.0      0.00000
      10350.0      0.00000
      10355.0  1.00000e-05
      10360.0      0.00000
      10365.0  1.00000e-05
      10370.0  1.00000e-05
      10375.0      0.00000
      10380.0      0.00000
      10385.0      0.00000
      10390.0      0.00000
      10395.0      0.00000
      10400.0      0.00000
      10405.0      0.00000
      10410.0      0.00000
      10415.0      0.00000
      10420.0      0.00000
      10425.0      0.00000
      10430.0      0.00000
      10435.0      0.00000
      10440.0      0.00000
      10445.0      0.00000
      10450.0      0.00000
      10455.0      0.00000
      10460.0      0.00000
      10465.0      0.00000
      10470.0      0.00000
      10475.0      0.00000
      10480.0      0.00000
      10485.0      0.00000
      10490.0      0.00000
      10495.0      0.00000
      10500.0      0.00000
      10505.0      0.00000
      10510.0      0.00000
      10515.0      0.00000
      10520.0      0.00000
      10525.0      0.00000
      10530.0      0.00000
      10535.0      0.00000
      10540.0      0.00000
      10545.0      0.00000
      10550.0      0.00000
      10555.0      0.00000
      10560.0      0.00000
      10565.0      0.00000
      10570.0      0.00000
      10575.0      0.00000
      10580.0      0.00000
      10585.0      0.00000
      10590.0      0.00000
      10595.0      0.00000
      10600.0      0.00000
      10605.0      0.00000
      10610.0      0.00000
      10615.0      0.00000
      10620.0      0.00000
      10625.0      0.00000
      10630.0      0.00000
      10635.0      0.00000
      10640.0      0.00000
      10645.0      0.00000
      10650.0      0.00000
      10655.0      0.00000
      10660.0      0.00000
      10665.0      0.00000
      10670.0      0.00000
      10675.0      0.00000
      10680.0      0.00000
      10685.0      0.00000
      10690.0      0.00000
      10695.0      0.00000
      10700.0      0.00000
      10705.0      0.00000
      10710.0      0.00000
      10715.0      0.00000
      10720.0      0.00000
      10725.0      0.00000
      10730.0      0.00000
      10735.0      0.00000
      10740.0      0.00000
      10745.0      0.00000
      10750.0      0.00000
      10755.0      0.00000
      10760.0      0.00000
      10765.0      0.00000
      10770.0      0.00000
      10775.0      0.00000
      10780.0      0.00000
      10785.0      0.00000
      10790.0      0.00000
      10795.0      0.00000
      10800.0      0.00000
      10805.0      0.00000
      10810.0      0.00000
      10815.0      0.00000
      10820.0      0.00000
      10825.0      0.00000
      10830.0      0.00000
      10835.0      0.00000
      10840.0      0.00000
      10845.0      0.00000
      10850.0      0.00000
      10855.0      0.00000
      10860.0      0.00000
      10865.0      0.00000
      10870.0      0.00000
      10875.0      0.00000
      10880.0      0.00000
      10885.0      0.00000
      10890.0      0.00000
      10895.0      0.00000
      10900.0      0.00000
      10905.0      0.00000
      10910.0      0.00000
      10915.0      0.00000
      10920.0      0.00000
      10925.0      0.00000
      10930.0      0.00000
      10935.0      0.00000
      10940.0      0.00000
      10945.0      0.00000
      10950.0      0.00000
      10955.0      0.00000
      10960.0      0.00000
      10965.0      0.00000
      10970.0      0.00000
      10975.0      0.00000
      10980.0      0.00000
      10985.0      0.00000
      10990.0      0.00000
      10995.0      0.00000
      11000.0      0.00000
