# DES system throughputs
# source: ~Flaugher 2010.  Calculations by Huan Lin, Aug 2010.
# Preliminary: CFHT mirror reflectivity used, some assumptions made 
# about the qe, filters, correctors.# DES g

      3000.00      0.00000
      3005.00      0.00000
      3010.00      0.00000
      3015.00      0.00000
      3020.00      0.00000
      3025.00      0.00000
      3030.00      0.00000
      3035.00      0.00000
      3040.00      0.00000
      3045.00      0.00000
      3050.00      0.00000
      3055.00      0.00000
      3060.00      0.00000
      3065.00      0.00000
      3070.00      0.00000
      3075.00      0.00000
      3080.00      0.00000
      3085.00      0.00000
      3090.00      0.00000
      3095.00      0.00000
      3100.00      0.00000
      3105.00      0.00000
      3110.00      0.00000
      3115.00      0.00000
      3120.00      0.00000
      3125.00      0.00000
      3130.00      0.00000
      3135.00      0.00000
      3140.00      0.00000
      3145.00      0.00000
      3150.00      0.00000
      3155.00      0.00000
      3160.00      0.00000
      3165.00      0.00000
      3170.00      0.00000
      3175.00      0.00000
      3180.00      0.00000
      3185.00      0.00000
      3190.00      0.00000
      3195.00      0.00000
      3200.00      0.00000
      3205.00      0.00000
      3210.00      0.00000
      3215.00      0.00000
      3220.00      0.00000
      3225.00      0.00000
      3230.00      0.00000
      3235.00      0.00000
      3240.00      0.00000
      3245.00      0.00000
      3250.00      0.00000
      3255.00      0.00000
      3260.00      0.00000
      3265.00      0.00000
      3270.00      0.00000
      3275.00      0.00000
      3280.00      0.00000
      3285.00      0.00000
      3290.00      0.00000
      3295.00      0.00000
      3300.00      0.00000
      3305.00      0.00000
      3310.00      0.00000
      3315.00      0.00000
      3320.00      0.00000
      3325.00      0.00000
      3330.00      0.00000
      3335.00      0.00000
      3340.00      0.00000
      3345.00      0.00000
      3350.00      0.00000
      3355.00      0.00000
      3360.00      0.00000
      3365.00      0.00000
      3370.00      0.00000
      3375.00      0.00000
      3380.00      0.00000
      3385.00      0.00000
      3390.00      0.00000
      3395.00      0.00000
      3400.00      0.00000
      3405.00      0.00000
      3410.00      0.00000
      3415.00      0.00000
      3420.00      0.00000
      3425.00      0.00000
      3430.00      0.00000
      3435.00      0.00000
      3440.00      0.00000
      3445.00      0.00000
      3450.00      0.00000
      3455.00      0.00000
      3460.00      0.00000
      3465.00      0.00000
      3470.00      0.00000
      3475.00      0.00000
      3480.00      0.00000
      3485.00      0.00000
      3490.00      0.00000
      3495.00      0.00000
      3500.00      0.00000
      3505.00      0.00000
      3510.00      0.00000
      3515.00      0.00000
      3520.00      0.00000
      3525.00      0.00000
      3530.00      0.00000
      3535.00      0.00000
      3540.00      0.00000
      3545.00      0.00000
      3550.00      0.00000
      3555.00      0.00000
      3560.00      0.00000
      3565.00      0.00000
      3570.00      0.00000
      3575.00      0.00000
      3580.00      0.00000
      3585.00      0.00000
      3590.00      0.00000
      3595.00      0.00000
      3600.00      0.00000
      3605.00      0.00000
      3610.00      0.00000
      3615.00      0.00000
      3620.00      0.00000
      3625.00      0.00000
      3630.00      0.00000
      3635.00      0.00000
      3640.00      0.00000
      3645.00      0.00000
      3650.00      0.00000
      3655.00      0.00000
      3660.00      0.00000
      3665.00      0.00000
      3670.00      0.00000
      3675.00      0.00000
      3680.00      0.00000
      3685.00      0.00000
      3690.00      0.00000
      3695.00      0.00000
      3700.00      0.00000
      3705.00      0.00000
      3710.00      0.00000
      3715.00      0.00000
      3720.00      0.00000
      3725.00      0.00000
      3730.00      0.00000
      3735.00      0.00000
      3740.00      0.00000
      3745.00      0.00000
      3750.00      0.00000
      3755.00      0.00000
      3760.00      0.00000
      3765.00      0.00000
      3770.00      0.00000
      3775.00      0.00000
      3780.00      0.00000
      3785.00      0.00000
      3790.00      0.00000
      3795.00      0.00000
      3800.00      0.00000
      3805.00      0.00000
      3810.00      0.00000
      3815.00      0.00000
      3820.00      0.00000
      3825.00      0.00000
      3830.00      0.00000
      3835.00      0.00000
      3840.00      0.00000
      3845.00      0.00000
      3850.00      0.00000
      3855.00  1.00000e-05
      3860.00  1.00000e-05
      3865.00  1.00000e-05
      3870.00  2.00000e-05
      3875.00  3.00000e-05
      3880.00  4.00000e-05
      3885.00  6.00000e-05
      3890.00  9.00000e-05
      3895.00  0.000140000
      3900.00  0.000230000
      3905.00  0.000390000
      3910.00  0.000660000
      3915.00   0.00112000
      3920.00   0.00198000
      3925.00   0.00353000
      3930.00   0.00634000
      3935.00    0.0115100
      3940.00    0.0204200
      3945.00    0.0346500
      3950.00    0.0550200
      3955.00    0.0807000
      3960.00     0.109990
      3965.00     0.138820
      3970.00     0.164770
      3975.00     0.185280
      3980.00     0.199470
      3985.00     0.209130
      3990.00     0.215410
      3995.00     0.219530
      4000.00     0.222470
      4005.00     0.223490
      4010.00     0.224180
      4015.00     0.224790
      4020.00     0.225550
      4025.00     0.226520
      4030.00     0.227790
      4035.00     0.229280
      4040.00     0.230900
      4045.00     0.232520
      4050.00     0.234040
      4055.00     0.235300
      4060.00     0.236320
      4065.00     0.237050
      4070.00     0.237510
      4075.00     0.237870
      4080.00     0.238230
      4085.00     0.238680
      4090.00     0.239310
      4095.00     0.240290
      4100.00     0.241550
      4105.00     0.243040
      4110.00     0.244790
      4115.00     0.246700
      4120.00     0.248700
      4125.00     0.250610
      4130.00     0.252440
      4135.00     0.254050
      4140.00     0.255420
      4145.00     0.256420
      4150.00     0.257330
      4155.00     0.257970
      4160.00     0.258520
      4165.00     0.259000
      4170.00     0.259550
      4175.00     0.260200
      4180.00     0.261040
      4185.00     0.262080
      4190.00     0.263250
      4195.00     0.264640
      4200.00     0.266270
      4205.00     0.267780
      4210.00     0.269330
      4215.00     0.270770
      4220.00     0.272010
      4225.00     0.273060
      4230.00     0.273850
      4235.00     0.274440
      4240.00     0.274810
      4245.00     0.275000
      4250.00     0.275060
      4255.00     0.275070
      4260.00     0.275070
      4265.00     0.275010
      4270.00     0.275060
      4275.00     0.275280
      4280.00     0.275550
      4285.00     0.275930
      4290.00     0.276430
      4295.00     0.277080
      4300.00     0.277790
      4305.00     0.278510
      4310.00     0.279240
      4315.00     0.280090
      4320.00     0.280960
      4325.00     0.281840
      4330.00     0.282740
      4335.00     0.283640
      4340.00     0.284540
      4345.00     0.285600
      4350.00     0.286670
      4355.00     0.287810
      4360.00     0.289050
      4365.00     0.290390
      4370.00     0.291850
      4375.00     0.293340
      4380.00     0.294880
      4385.00     0.296480
      4390.00     0.298090
      4395.00     0.299700
      4400.00     0.301250
      4405.00     0.302630
      4410.00     0.303930
      4415.00     0.305210
      4420.00     0.306420
      4425.00     0.307460
      4430.00     0.308470
      4435.00     0.309390
      4440.00     0.310330
      4445.00     0.311170
      4450.00     0.312030
      4455.00     0.312890
      4460.00     0.313820
      4465.00     0.314770
      4470.00     0.315780
      4475.00     0.316820
      4480.00     0.317880
      4485.00     0.318910
      4490.00     0.319940
      4495.00     0.320940
      4500.00     0.321880
      4505.00     0.322720
      4510.00     0.323430
      4515.00     0.324060
      4520.00     0.324630
      4525.00     0.325110
      4530.00     0.325460
      4535.00     0.325810
      4540.00     0.326070
      4545.00     0.326280
      4550.00     0.326500
      4555.00     0.326700
      4560.00     0.327000
      4565.00     0.327350
      4570.00     0.327790
      4575.00     0.328280
      4580.00     0.328850
      4585.00     0.329560
      4590.00     0.330410
      4595.00     0.331270
      4600.00     0.332290
      4605.00     0.333390
      4610.00     0.334600
      4615.00     0.335800
      4620.00     0.337110
      4625.00     0.338450
      4630.00     0.339860
      4635.00     0.341190
      4640.00     0.342500
      4645.00     0.343810
      4650.00     0.345100
      4655.00     0.346340
      4660.00     0.347500
      4665.00     0.348590
      4670.00     0.349600
      4675.00     0.350530
      4680.00     0.351320
      4685.00     0.352030
      4690.00     0.352650
      4695.00     0.353210
      4700.00     0.353600
      4705.00     0.353740
      4710.00     0.353730
      4715.00     0.353620
      4720.00     0.353380
      4725.00     0.353090
      4730.00     0.352740
      4735.00     0.352470
      4740.00     0.352130
      4745.00     0.351900
      4750.00     0.351790
      4755.00     0.351760
      4760.00     0.351950
      4765.00     0.352280
      4770.00     0.352800
      4775.00     0.353460
      4780.00     0.354370
      4785.00     0.355360
      4790.00     0.356550
      4795.00     0.357920
      4800.00     0.359390
      4805.00     0.360840
      4810.00     0.362270
      4815.00     0.363720
      4820.00     0.365120
      4825.00     0.366420
      4830.00     0.367600
      4835.00     0.368710
      4840.00     0.369690
      4845.00     0.370510
      4850.00     0.371190
      4855.00     0.371830
      4860.00     0.372390
      4865.00     0.372950
      4870.00     0.373490
      4875.00     0.374120
      4880.00     0.374700
      4885.00     0.375370
      4890.00     0.376100
      4895.00     0.376950
      4900.00     0.377900
      4905.00     0.378880
      4910.00     0.379930
      4915.00     0.380990
      4920.00     0.382050
      4925.00     0.383090
      4930.00     0.384070
      4935.00     0.385010
      4940.00     0.385900
      4945.00     0.386650
      4950.00     0.387240
      4955.00     0.387700
      4960.00     0.388020
      4965.00     0.388230
      4970.00     0.388400
      4975.00     0.388470
      4980.00     0.388550
      4985.00     0.388670
      4990.00     0.388780
      4995.00     0.388970
      5000.00     0.389190
      5005.00     0.389330
      5010.00     0.389620
      5015.00     0.390070
      5020.00     0.390570
      5025.00     0.391220
      5030.00     0.391860
      5035.00     0.392450
      5040.00     0.393050
      5045.00     0.393560
      5050.00     0.393980
      5055.00     0.394280
      5060.00     0.394470
      5065.00     0.394480
      5070.00     0.394360
      5075.00     0.394100
      5080.00     0.393700
      5085.00     0.393310
      5090.00     0.392870
      5095.00     0.392500
      5100.00     0.392090
      5105.00     0.391770
      5110.00     0.391570
      5115.00     0.391410
      5120.00     0.391390
      5125.00     0.391480
      5130.00     0.391660
      5135.00     0.392000
      5140.00     0.392370
      5145.00     0.392750
      5150.00     0.393170
      5155.00     0.393400
      5160.00     0.393640
      5165.00     0.393670
      5170.00     0.393610
      5175.00     0.393350
      5180.00     0.392990
      5185.00     0.392420
      5190.00     0.391780
      5195.00     0.391060
      5200.00     0.390360
      5205.00     0.389890
      5210.00     0.389530
      5215.00     0.389380
      5220.00     0.389480
      5225.00     0.389790
      5230.00     0.390390
      5235.00     0.391260
      5240.00     0.392330
      5245.00     0.393600
      5250.00     0.395000
      5255.00     0.396420
      5260.00     0.397890
      5265.00     0.399220
      5270.00     0.400260
      5275.00     0.401030
      5280.00     0.401320
      5285.00     0.401170
      5290.00     0.400570
      5295.00     0.399580
      5300.00     0.398280
      5305.00     0.396720
      5310.00     0.395030
      5315.00     0.393390
      5320.00     0.391880
      5325.00     0.390550
      5330.00     0.389540
      5335.00     0.389000
      5340.00     0.389120
      5345.00     0.389600
      5350.00     0.390510
      5355.00     0.391730
      5360.00     0.393180
      5365.00     0.394630
      5370.00     0.395930
      5375.00     0.396910
      5380.00     0.397490
      5385.00     0.397500
      5390.00     0.396960
      5395.00     0.395990
      5400.00     0.394600
      5405.00     0.392800
      5410.00     0.390990
      5415.00     0.389420
      5420.00     0.388210
      5425.00     0.387490
      5430.00     0.387400
      5435.00     0.387870
      5440.00     0.388730
      5445.00     0.389610
      5450.00     0.390110
      5455.00     0.389490
      5460.00     0.387270
      5465.00     0.382660
      5470.00     0.374620
      5475.00     0.362240
      5480.00     0.344770
      5485.00     0.320330
      5490.00     0.288510
      5495.00     0.250710
      5500.00     0.208110
      5505.00     0.164460
      5510.00     0.123810
      5515.00    0.0885400
      5520.00    0.0603900
      5525.00    0.0397700
      5530.00    0.0258500
      5535.00    0.0165300
      5540.00    0.0105800
      5545.00   0.00687000
      5550.00   0.00447000
      5555.00   0.00294000
      5560.00   0.00197000
      5565.00   0.00134000
      5570.00  0.000920000
      5575.00  0.000650000
      5580.00  0.000460000
      5585.00  0.000330000
      5590.00  0.000240000
      5595.00  0.000170000
      5600.00  0.000130000
      5605.00  0.000100000
      5610.00  7.00000e-05
      5615.00  6.00000e-05
      5620.00  4.00000e-05
      5625.00  3.00000e-05
      5630.00  3.00000e-05
      5635.00  2.00000e-05
      5640.00  2.00000e-05
      5645.00  1.00000e-05
      5650.00  1.00000e-05
      5655.00  1.00000e-05
      5660.00  1.00000e-05
      5665.00  1.00000e-05
      5670.00      0.00000
      5675.00      0.00000
      5680.00      0.00000
      5685.00      0.00000
      5690.00      0.00000
      5695.00      0.00000
      5700.00      0.00000
      5705.00      0.00000
      5710.00      0.00000
      5715.00      0.00000
      5720.00      0.00000
      5725.00      0.00000
      5730.00      0.00000
      5735.00      0.00000
      5740.00      0.00000
      5745.00      0.00000
      5750.00      0.00000
      5755.00      0.00000
      5760.00      0.00000
      5765.00      0.00000
      5770.00      0.00000
      5775.00      0.00000
      5780.00      0.00000
      5785.00      0.00000
      5790.00      0.00000
      5795.00      0.00000
      5800.00      0.00000
      5805.00      0.00000
      5810.00      0.00000
      5815.00      0.00000
      5820.00      0.00000
      5825.00      0.00000
      5830.00      0.00000
      5835.00      0.00000
      5840.00      0.00000
      5845.00      0.00000
      5850.00      0.00000
      5855.00      0.00000
      5860.00      0.00000
      5865.00      0.00000
      5870.00      0.00000
      5875.00      0.00000
      5880.00      0.00000
      5885.00      0.00000
      5890.00      0.00000
      5895.00      0.00000
      5900.00      0.00000
      5905.00      0.00000
      5910.00      0.00000
      5915.00      0.00000
      5920.00      0.00000
      5925.00      0.00000
      5930.00      0.00000
      5935.00      0.00000
      5940.00      0.00000
      5945.00      0.00000
      5950.00      0.00000
      5955.00      0.00000
      5960.00      0.00000
      5965.00      0.00000
      5970.00      0.00000
      5975.00      0.00000
      5980.00      0.00000
      5985.00      0.00000
      5990.00      0.00000
      5995.00      0.00000
      6000.00      0.00000
      6005.00      0.00000
      6010.00      0.00000
      6015.00      0.00000
      6020.00      0.00000
      6025.00      0.00000
      6030.00      0.00000
      6035.00      0.00000
      6040.00      0.00000
      6045.00      0.00000
      6050.00      0.00000
      6055.00      0.00000
      6060.00      0.00000
      6065.00      0.00000
      6070.00      0.00000
      6075.00      0.00000
      6080.00      0.00000
      6085.00      0.00000
      6090.00      0.00000
      6095.00      0.00000
      6100.00      0.00000
      6105.00      0.00000
      6110.00      0.00000
      6115.00      0.00000
      6120.00      0.00000
      6125.00      0.00000
      6130.00      0.00000
      6135.00      0.00000
      6140.00      0.00000
      6145.00      0.00000
      6150.00      0.00000
      6155.00      0.00000
      6160.00      0.00000
      6165.00      0.00000
      6170.00      0.00000
      6175.00      0.00000
      6180.00      0.00000
      6185.00      0.00000
      6190.00      0.00000
      6195.00      0.00000
      6200.00      0.00000
      6205.00      0.00000
      6210.00      0.00000
      6215.00      0.00000
      6220.00      0.00000
      6225.00      0.00000
      6230.00      0.00000
      6235.00      0.00000
      6240.00      0.00000
      6245.00      0.00000
      6250.00      0.00000
      6255.00      0.00000
      6260.00      0.00000
      6265.00      0.00000
      6270.00      0.00000
      6275.00      0.00000
      6280.00      0.00000
      6285.00      0.00000
      6290.00      0.00000
      6295.00      0.00000
      6300.00      0.00000
      6305.00      0.00000
      6310.00      0.00000
      6315.00      0.00000
      6320.00      0.00000
      6325.00      0.00000
      6330.00      0.00000
      6335.00      0.00000
      6340.00      0.00000
      6345.00      0.00000
      6350.00      0.00000
      6355.00      0.00000
      6360.00      0.00000
      6365.00      0.00000
      6370.00      0.00000
      6375.00      0.00000
      6380.00      0.00000
      6385.00      0.00000
      6390.00      0.00000
      6395.00      0.00000
      6400.00      0.00000
      6405.00      0.00000
      6410.00      0.00000
      6415.00      0.00000
      6420.00      0.00000
      6425.00      0.00000
      6430.00      0.00000
      6435.00      0.00000
      6440.00      0.00000
      6445.00      0.00000
      6450.00      0.00000
      6455.00      0.00000
      6460.00      0.00000
      6465.00      0.00000
      6470.00      0.00000
      6475.00      0.00000
      6480.00      0.00000
      6485.00      0.00000
      6490.00      0.00000
      6495.00      0.00000
      6500.00      0.00000
      6505.00      0.00000
      6510.00      0.00000
      6515.00      0.00000
      6520.00      0.00000
      6525.00      0.00000
      6530.00      0.00000
      6535.00      0.00000
      6540.00      0.00000
      6545.00      0.00000
      6550.00      0.00000
      6555.00      0.00000
      6560.00      0.00000
      6565.00      0.00000
      6570.00      0.00000
      6575.00      0.00000
      6580.00      0.00000
      6585.00      0.00000
      6590.00      0.00000
      6595.00      0.00000
      6600.00      0.00000
      6605.00      0.00000
      6610.00      0.00000
      6615.00      0.00000
      6620.00      0.00000
      6625.00      0.00000
      6630.00      0.00000
      6635.00      0.00000
      6640.00      0.00000
      6645.00      0.00000
      6650.00      0.00000
      6655.00      0.00000
      6660.00      0.00000
      6665.00      0.00000
      6670.00      0.00000
      6675.00      0.00000
      6680.00      0.00000
      6685.00      0.00000
      6690.00      0.00000
      6695.00      0.00000
      6700.00      0.00000
      6705.00      0.00000
      6710.00      0.00000
      6715.00      0.00000
      6720.00      0.00000
      6725.00      0.00000
      6730.00      0.00000
      6735.00      0.00000
      6740.00      0.00000
      6745.00      0.00000
      6750.00      0.00000
      6755.00      0.00000
      6760.00      0.00000
      6765.00      0.00000
      6770.00      0.00000
      6775.00      0.00000
      6780.00      0.00000
      6785.00      0.00000
      6790.00      0.00000
      6795.00      0.00000
      6800.00      0.00000
      6805.00      0.00000
      6810.00      0.00000
      6815.00      0.00000
      6820.00      0.00000
      6825.00      0.00000
      6830.00      0.00000
      6835.00      0.00000
      6840.00      0.00000
      6845.00      0.00000
      6850.00      0.00000
      6855.00      0.00000
      6860.00      0.00000
      6865.00      0.00000
      6870.00      0.00000
      6875.00      0.00000
      6880.00      0.00000
      6885.00      0.00000
      6890.00      0.00000
      6895.00      0.00000
      6900.00      0.00000
      6905.00      0.00000
      6910.00      0.00000
      6915.00      0.00000
      6920.00      0.00000
      6925.00      0.00000
      6930.00      0.00000
      6935.00      0.00000
      6940.00      0.00000
      6945.00      0.00000
      6950.00      0.00000
      6955.00      0.00000
      6960.00      0.00000
      6965.00      0.00000
      6970.00      0.00000
      6975.00      0.00000
      6980.00      0.00000
      6985.00      0.00000
      6990.00      0.00000
      6995.00      0.00000
      7000.00      0.00000
      7005.00      0.00000
      7010.00      0.00000
      7015.00      0.00000
      7020.00      0.00000
      7025.00      0.00000
      7030.00      0.00000
      7035.00      0.00000
      7040.00      0.00000
      7045.00      0.00000
      7050.00      0.00000
      7055.00      0.00000
      7060.00      0.00000
      7065.00      0.00000
      7070.00      0.00000
      7075.00      0.00000
      7080.00      0.00000
      7085.00      0.00000
      7090.00      0.00000
      7095.00      0.00000
      7100.00      0.00000
      7105.00      0.00000
      7110.00      0.00000
      7115.00      0.00000
      7120.00      0.00000
      7125.00      0.00000
      7130.00      0.00000
      7135.00      0.00000
      7140.00      0.00000
      7145.00      0.00000
      7150.00      0.00000
      7155.00      0.00000
      7160.00      0.00000
      7165.00      0.00000
      7170.00      0.00000
      7175.00      0.00000
      7180.00      0.00000
      7185.00      0.00000
      7190.00      0.00000
      7195.00      0.00000
      7200.00      0.00000
      7205.00      0.00000
      7210.00      0.00000
      7215.00      0.00000
      7220.00      0.00000
      7225.00      0.00000
      7230.00      0.00000
      7235.00      0.00000
      7240.00      0.00000
      7245.00      0.00000
      7250.00      0.00000
      7255.00      0.00000
      7260.00      0.00000
      7265.00      0.00000
      7270.00      0.00000
      7275.00      0.00000
      7280.00      0.00000
      7285.00      0.00000
      7290.00      0.00000
      7295.00      0.00000
      7300.00      0.00000
      7305.00      0.00000
      7310.00      0.00000
      7315.00      0.00000
      7320.00      0.00000
      7325.00      0.00000
      7330.00      0.00000
      7335.00      0.00000
      7340.00      0.00000
      7345.00      0.00000
      7350.00      0.00000
      7355.00      0.00000
      7360.00      0.00000
      7365.00      0.00000
      7370.00      0.00000
      7375.00      0.00000
      7380.00      0.00000
      7385.00      0.00000
      7390.00      0.00000
      7395.00      0.00000
      7400.00      0.00000
      7405.00      0.00000
      7410.00      0.00000
      7415.00      0.00000
      7420.00      0.00000
      7425.00      0.00000
      7430.00      0.00000
      7435.00      0.00000
      7440.00      0.00000
      7445.00      0.00000
      7450.00      0.00000
      7455.00      0.00000
      7460.00      0.00000
      7465.00      0.00000
      7470.00      0.00000
      7475.00      0.00000
      7480.00      0.00000
      7485.00      0.00000
      7490.00      0.00000
      7495.00      0.00000
      7500.00      0.00000
      7505.00      0.00000
      7510.00      0.00000
      7515.00      0.00000
      7520.00  1.00000e-05
      7525.00  1.00000e-05
      7530.00  1.00000e-05
      7535.00  1.00000e-05
      7540.00  1.00000e-05
      7545.00  1.00000e-05
      7550.00  1.00000e-05
      7555.00      0.00000
      7560.00      0.00000
      7565.00      0.00000
      7570.00      0.00000
      7575.00      0.00000
      7580.00      0.00000
      7585.00      0.00000
      7590.00      0.00000
      7595.00      0.00000
      7600.00      0.00000
      7605.00      0.00000
      7610.00      0.00000
      7615.00      0.00000
      7620.00      0.00000
      7625.00      0.00000
      7630.00      0.00000
      7635.00      0.00000
      7640.00      0.00000
      7645.00      0.00000
      7650.00      0.00000
      7655.00      0.00000
      7660.00      0.00000
      7665.00      0.00000
      7670.00      0.00000
      7675.00      0.00000
      7680.00      0.00000
      7685.00      0.00000
      7690.00      0.00000
      7695.00      0.00000
      7700.00  1.00000e-05
      7705.00  1.00000e-05
      7710.00  1.00000e-05
      7715.00  1.00000e-05
      7720.00      0.00000
      7725.00      0.00000
      7730.00      0.00000
      7735.00      0.00000
      7740.00      0.00000
      7745.00      0.00000
      7750.00      0.00000
      7755.00      0.00000
      7760.00      0.00000
      7765.00      0.00000
      7770.00      0.00000
      7775.00      0.00000
      7780.00      0.00000
      7785.00      0.00000
      7790.00      0.00000
      7795.00      0.00000
      7800.00      0.00000
      7805.00      0.00000
      7810.00      0.00000
      7815.00      0.00000
      7820.00      0.00000
      7825.00      0.00000
      7830.00      0.00000
      7835.00      0.00000
      7840.00      0.00000
      7845.00      0.00000
      7850.00      0.00000
      7855.00      0.00000
      7860.00      0.00000
      7865.00      0.00000
      7870.00      0.00000
      7875.00      0.00000
      7880.00      0.00000
      7885.00      0.00000
      7890.00      0.00000
      7895.00      0.00000
      7900.00      0.00000
      7905.00      0.00000
      7910.00      0.00000
      7915.00      0.00000
      7920.00      0.00000
      7925.00      0.00000
      7930.00      0.00000
      7935.00      0.00000
      7940.00      0.00000
      7945.00      0.00000
      7950.00      0.00000
      7955.00      0.00000
      7960.00      0.00000
      7965.00      0.00000
      7970.00      0.00000
      7975.00      0.00000
      7980.00      0.00000
      7985.00      0.00000
      7990.00      0.00000
      7995.00      0.00000
      8000.00      0.00000
      8005.00      0.00000
      8010.00      0.00000
      8015.00      0.00000
      8020.00      0.00000
      8025.00      0.00000
      8030.00      0.00000
      8035.00      0.00000
      8040.00      0.00000
      8045.00      0.00000
      8050.00      0.00000
      8055.00      0.00000
      8060.00      0.00000
      8065.00      0.00000
      8070.00      0.00000
      8075.00      0.00000
      8080.00      0.00000
      8085.00      0.00000
      8090.00      0.00000
      8095.00      0.00000
      8100.00      0.00000
      8105.00      0.00000
      8110.00      0.00000
      8115.00      0.00000
      8120.00      0.00000
      8125.00      0.00000
      8130.00      0.00000
      8135.00      0.00000
      8140.00      0.00000
      8145.00      0.00000
      8150.00      0.00000
      8155.00      0.00000
      8160.00      0.00000
      8165.00      0.00000
      8170.00      0.00000
      8175.00      0.00000
      8180.00      0.00000
      8185.00      0.00000
      8190.00      0.00000
      8195.00      0.00000
      8200.00      0.00000
      8205.00      0.00000
      8210.00      0.00000
      8215.00      0.00000
      8220.00      0.00000
      8225.00      0.00000
      8230.00      0.00000
      8235.00      0.00000
      8240.00      0.00000
      8245.00      0.00000
      8250.00      0.00000
      8255.00      0.00000
      8260.00      0.00000
      8265.00      0.00000
      8270.00      0.00000
      8275.00      0.00000
      8280.00      0.00000
      8285.00      0.00000
      8290.00      0.00000
      8295.00      0.00000
      8300.00      0.00000
      8305.00      0.00000
      8310.00      0.00000
      8315.00      0.00000
      8320.00      0.00000
      8325.00      0.00000
      8330.00      0.00000
      8335.00      0.00000
      8340.00      0.00000
      8345.00      0.00000
      8350.00      0.00000
      8355.00      0.00000
      8360.00      0.00000
      8365.00      0.00000
      8370.00      0.00000
      8375.00      0.00000
      8380.00      0.00000
      8385.00      0.00000
      8390.00      0.00000
      8395.00      0.00000
      8400.00      0.00000
      8405.00      0.00000
      8410.00      0.00000
      8415.00      0.00000
      8420.00      0.00000
      8425.00      0.00000
      8430.00      0.00000
      8435.00      0.00000
      8440.00      0.00000
      8445.00      0.00000
      8450.00      0.00000
      8455.00      0.00000
      8460.00      0.00000
      8465.00      0.00000
      8470.00      0.00000
      8475.00      0.00000
      8480.00      0.00000
      8485.00      0.00000
      8490.00      0.00000
      8495.00      0.00000
      8500.00      0.00000
      8505.00      0.00000
      8510.00      0.00000
      8515.00      0.00000
      8520.00      0.00000
      8525.00      0.00000
      8530.00      0.00000
      8535.00      0.00000
      8540.00      0.00000
      8545.00      0.00000
      8550.00      0.00000
      8555.00      0.00000
      8560.00      0.00000
      8565.00      0.00000
      8570.00      0.00000
      8575.00      0.00000
      8580.00      0.00000
      8585.00      0.00000
      8590.00      0.00000
      8595.00      0.00000
      8600.00      0.00000
      8605.00      0.00000
      8610.00      0.00000
      8615.00      0.00000
      8620.00      0.00000
      8625.00      0.00000
      8630.00      0.00000
      8635.00      0.00000
      8640.00      0.00000
      8645.00      0.00000
      8650.00      0.00000
      8655.00      0.00000
      8660.00      0.00000
      8665.00      0.00000
      8670.00      0.00000
      8675.00      0.00000
      8680.00      0.00000
      8685.00      0.00000
      8690.00      0.00000
      8695.00      0.00000
      8700.00      0.00000
      8705.00      0.00000
      8710.00      0.00000
      8715.00      0.00000
      8720.00      0.00000
      8725.00      0.00000
      8730.00      0.00000
      8735.00      0.00000
      8740.00      0.00000
      8745.00      0.00000
      8750.00      0.00000
      8755.00      0.00000
      8760.00      0.00000
      8765.00      0.00000
      8770.00      0.00000
      8775.00      0.00000
      8780.00      0.00000
      8785.00      0.00000
      8790.00      0.00000
      8795.00      0.00000
      8800.00  2.00000e-05
      8805.00  2.00000e-05
      8810.00  2.00000e-05
      8815.00  2.00000e-05
      8820.00  2.00000e-05
      8825.00  2.00000e-05
      8830.00  2.00000e-05
      8835.00  2.00000e-05
      8840.00  2.00000e-05
      8845.00  2.00000e-05
      8850.00  2.00000e-05
      8855.00  2.00000e-05
      8860.00  2.00000e-05
      8865.00  2.00000e-05
      8870.00  2.00000e-05
      8875.00  2.00000e-05
      8880.00  2.00000e-05
      8885.00  2.00000e-05
      8890.00  2.00000e-05
      8895.00  2.00000e-05
      8900.00  2.00000e-05
      8905.00  2.00000e-05
      8910.00  2.00000e-05
      8915.00  2.00000e-05
      8920.00  2.00000e-05
      8925.00  2.00000e-05
      8930.00  2.00000e-05
      8935.00  2.00000e-05
      8940.00  2.00000e-05
      8945.00  2.00000e-05
      8950.00  2.00000e-05
      8955.00  2.00000e-05
      8960.00  2.00000e-05
      8965.00  2.00000e-05
      8970.00  1.00000e-05
      8975.00  2.00000e-05
      8980.00  2.00000e-05
      8985.00  1.00000e-05
      8990.00  2.00000e-05
      8995.00  2.00000e-05
      9000.00  2.00000e-05
      9005.00  2.00000e-05
      9010.00  2.00000e-05
      9015.00  2.00000e-05
      9020.00  2.00000e-05
      9025.00  2.00000e-05
      9030.00  2.00000e-05
      9035.00  2.00000e-05
      9040.00  2.00000e-05
      9045.00  2.00000e-05
      9050.00  2.00000e-05
      9055.00  2.00000e-05
      9060.00  1.00000e-05
      9065.00  2.00000e-05
      9070.00  2.00000e-05
      9075.00  2.00000e-05
      9080.00  2.00000e-05
      9085.00  2.00000e-05
      9090.00  2.00000e-05
      9095.00  2.00000e-05
      9100.00  2.00000e-05
      9105.00  2.00000e-05
      9110.00  2.00000e-05
      9115.00  2.00000e-05
      9120.00  2.00000e-05
      9125.00  2.00000e-05
      9130.00  2.00000e-05
      9135.00  2.00000e-05
      9140.00  2.00000e-05
      9145.00  2.00000e-05
      9150.00  2.00000e-05
      9155.00  1.00000e-05
      9160.00  2.00000e-05
      9165.00  2.00000e-05
      9170.00  1.00000e-05
      9175.00  2.00000e-05
      9180.00  2.00000e-05
      9185.00  2.00000e-05
      9190.00  2.00000e-05
      9195.00  2.00000e-05
      9200.00  2.00000e-05
      9205.00  1.00000e-05
      9210.00  2.00000e-05
      9215.00  2.00000e-05
      9220.00  2.00000e-05
      9225.00  2.00000e-05
      9230.00  2.00000e-05
      9235.00  1.00000e-05
      9240.00  2.00000e-05
      9245.00  2.00000e-05
      9250.00  2.00000e-05
      9255.00  2.00000e-05
      9260.00  2.00000e-05
      9265.00  2.00000e-05
      9270.00  2.00000e-05
      9275.00  2.00000e-05
      9280.00  1.00000e-05
      9285.00  2.00000e-05
      9290.00  2.00000e-05
      9295.00  1.00000e-05
      9300.00  1.00000e-05
      9305.00  2.00000e-05
      9310.00  2.00000e-05
      9315.00  1.00000e-05
      9320.00  1.00000e-05
      9325.00  1.00000e-05
      9330.00  1.00000e-05
      9335.00  1.00000e-05
      9340.00  1.00000e-05
      9345.00  1.00000e-05
      9350.00  1.00000e-05
      9355.00  1.00000e-05
      9360.00  1.00000e-05
      9365.00  1.00000e-05
      9370.00  1.00000e-05
      9375.00  1.00000e-05
      9380.00  1.00000e-05
      9385.00  1.00000e-05
      9390.00  1.00000e-05
      9395.00  1.00000e-05
      9400.00  1.00000e-05
      9405.00  1.00000e-05
      9410.00  1.00000e-05
      9415.00  1.00000e-05
      9420.00  1.00000e-05
      9425.00  1.00000e-05
      9430.00  1.00000e-05
      9435.00  1.00000e-05
      9440.00  1.00000e-05
      9445.00  1.00000e-05
      9450.00  1.00000e-05
      9455.00  1.00000e-05
      9460.00  1.00000e-05
      9465.00  1.00000e-05
      9470.00  1.00000e-05
      9475.00  1.00000e-05
      9480.00  1.00000e-05
      9485.00  1.00000e-05
      9490.00  1.00000e-05
      9495.00  1.00000e-05
      9500.00  1.00000e-05
      9505.00  1.00000e-05
      9510.00  1.00000e-05
      9515.00  1.00000e-05
      9520.00  1.00000e-05
      9525.00  1.00000e-05
      9530.00  1.00000e-05
      9535.00  1.00000e-05
      9540.00  1.00000e-05
      9545.00  1.00000e-05
      9550.00  1.00000e-05
      9555.00  1.00000e-05
      9560.00  1.00000e-05
      9565.00  1.00000e-05
      9570.00  1.00000e-05
      9575.00  1.00000e-05
      9580.00  1.00000e-05
      9585.00  1.00000e-05
      9590.00  1.00000e-05
      9595.00  1.00000e-05
      9600.00  1.00000e-05
      9605.00  1.00000e-05
      9610.00  1.00000e-05
      9615.00  2.00000e-05
      9620.00  1.00000e-05
      9625.00  1.00000e-05
      9630.00  1.00000e-05
      9635.00  1.00000e-05
      9640.00  2.00000e-05
      9645.00  1.00000e-05
      9650.00  1.00000e-05
      9655.00  1.00000e-05
      9660.00  1.00000e-05
      9665.00  1.00000e-05
      9670.00  1.00000e-05
      9675.00  1.00000e-05
      9680.00  1.00000e-05
      9685.00  1.00000e-05
      9690.00  2.00000e-05
      9695.00  1.00000e-05
      9700.00  1.00000e-05
      9705.00  2.00000e-05
      9710.00  1.00000e-05
      9715.00  1.00000e-05
      9720.00  1.00000e-05
      9725.00  1.00000e-05
      9730.00  1.00000e-05
      9735.00  1.00000e-05
      9740.00  1.00000e-05
      9745.00  1.00000e-05
      9750.00  1.00000e-05
      9755.00  1.00000e-05
      9760.00  1.00000e-05
      9765.00  1.00000e-05
      9770.00  1.00000e-05
      9775.00  1.00000e-05
      9780.00  1.00000e-05
      9785.00  1.00000e-05
      9790.00  1.00000e-05
      9795.00  1.00000e-05
      9800.00  1.00000e-05
      9805.00  1.00000e-05
      9810.00  1.00000e-05
      9815.00  1.00000e-05
      9820.00  1.00000e-05
      9825.00  1.00000e-05
      9830.00  1.00000e-05
      9835.00  1.00000e-05
      9840.00  1.00000e-05
      9845.00  1.00000e-05
      9850.00  1.00000e-05
      9855.00  1.00000e-05
      9860.00  1.00000e-05
      9865.00  1.00000e-05
      9870.00  1.00000e-05
      9875.00  1.00000e-05
      9880.00  1.00000e-05
      9885.00  1.00000e-05
      9890.00  1.00000e-05
      9895.00  1.00000e-05
      9900.00  1.00000e-05
      9905.00  1.00000e-05
      9910.00  1.00000e-05
      9915.00  1.00000e-05
      9920.00  1.00000e-05
      9925.00  1.00000e-05
      9930.00  1.00000e-05
      9935.00  1.00000e-05
      9940.00  1.00000e-05
      9945.00  1.00000e-05
      9950.00  1.00000e-05
      9955.00  1.00000e-05
      9960.00  1.00000e-05
      9965.00  1.00000e-05
      9970.00  1.00000e-05
      9975.00  1.00000e-05
      9980.00  1.00000e-05
      9985.00  1.00000e-05
      9990.00  1.00000e-05
      9995.00  1.00000e-05
      10000.0  1.00000e-05
      10005.0  1.00000e-05
      10010.0  1.00000e-05
      10015.0  1.00000e-05
      10020.0  1.00000e-05
      10025.0  1.00000e-05
      10030.0  1.00000e-05
      10035.0  1.00000e-05
      10040.0  1.00000e-05
      10045.0  1.00000e-05
      10050.0  1.00000e-05
      10055.0  1.00000e-05
      10060.0  1.00000e-05
      10065.0  1.00000e-05
      10070.0  1.00000e-05
      10075.0  1.00000e-05
      10080.0  1.00000e-05
      10085.0  1.00000e-05
      10090.0  1.00000e-05
      10095.0  1.00000e-05
      10100.0  1.00000e-05
      10105.0  1.00000e-05
      10110.0  1.00000e-05
      10115.0  1.00000e-05
      10120.0  1.00000e-05
      10125.0  1.00000e-05
      10130.0  1.00000e-05
      10135.0  1.00000e-05
      10140.0  1.00000e-05
      10145.0  1.00000e-05
      10150.0  1.00000e-05
      10155.0  1.00000e-05
      10160.0  1.00000e-05
      10165.0  1.00000e-05
      10170.0  1.00000e-05
      10175.0  1.00000e-05
      10180.0  1.00000e-05
      10185.0  1.00000e-05
      10190.0  1.00000e-05
      10195.0  1.00000e-05
      10200.0  1.00000e-05
      10205.0  1.00000e-05
      10210.0  1.00000e-05
      10215.0  1.00000e-05
      10220.0  1.00000e-05
      10225.0  1.00000e-05
      10230.0      0.00000
      10235.0  1.00000e-05
      10240.0  1.00000e-05
      10245.0  1.00000e-05
      10250.0  1.00000e-05
      10255.0  1.00000e-05
      10260.0  1.00000e-05
      10265.0  1.00000e-05
      10270.0  1.00000e-05
      10275.0      0.00000
      10280.0  1.00000e-05
      10285.0  1.00000e-05
      10290.0      0.00000
      10295.0      0.00000
      10300.0  1.00000e-05
      10305.0  1.00000e-05
      10310.0      0.00000
      10315.0      0.00000
      10320.0      0.00000
      10325.0      0.00000
      10330.0      0.00000
      10335.0      0.00000
      10340.0      0.00000
      10345.0      0.00000
      10350.0      0.00000
      10355.0      0.00000
      10360.0      0.00000
      10365.0      0.00000
      10370.0      0.00000
      10375.0      0.00000
      10380.0      0.00000
      10385.0      0.00000
      10390.0      0.00000
      10395.0      0.00000
      10400.0      0.00000
      10405.0      0.00000
      10410.0      0.00000
      10415.0      0.00000
      10420.0      0.00000
      10425.0      0.00000
      10430.0      0.00000
      10435.0      0.00000
      10440.0      0.00000
      10445.0      0.00000
      10450.0      0.00000
      10455.0      0.00000
      10460.0      0.00000
      10465.0      0.00000
      10470.0      0.00000
      10475.0      0.00000
      10480.0      0.00000
      10485.0      0.00000
      10490.0      0.00000
      10495.0      0.00000
      10500.0      0.00000
      10505.0      0.00000
      10510.0      0.00000
      10515.0      0.00000
      10520.0      0.00000
      10525.0      0.00000
      10530.0      0.00000
      10535.0      0.00000
      10540.0      0.00000
      10545.0      0.00000
      10550.0      0.00000
      10555.0      0.00000
      10560.0      0.00000
      10565.0      0.00000
      10570.0      0.00000
      10575.0      0.00000
      10580.0      0.00000
      10585.0      0.00000
      10590.0      0.00000
      10595.0      0.00000
      10600.0      0.00000
      10605.0      0.00000
      10610.0      0.00000
      10615.0      0.00000
      10620.0      0.00000
      10625.0      0.00000
      10630.0      0.00000
      10635.0      0.00000
      10640.0      0.00000
      10645.0      0.00000
      10650.0      0.00000
      10655.0      0.00000
      10660.0      0.00000
      10665.0      0.00000
      10670.0      0.00000
      10675.0      0.00000
      10680.0      0.00000
      10685.0      0.00000
      10690.0      0.00000
      10695.0      0.00000
      10700.0      0.00000
      10705.0      0.00000
      10710.0      0.00000
      10715.0      0.00000
      10720.0      0.00000
      10725.0      0.00000
      10730.0      0.00000
      10735.0      0.00000
      10740.0      0.00000
      10745.0      0.00000
      10750.0      0.00000
      10755.0      0.00000
      10760.0      0.00000
      10765.0      0.00000
      10770.0      0.00000
      10775.0      0.00000
      10780.0      0.00000
      10785.0      0.00000
      10790.0      0.00000
      10795.0      0.00000
      10800.0      0.00000
      10805.0      0.00000
      10810.0      0.00000
      10815.0      0.00000
      10820.0      0.00000
      10825.0      0.00000
      10830.0      0.00000
      10835.0      0.00000
      10840.0      0.00000
      10845.0      0.00000
      10850.0      0.00000
      10855.0      0.00000
      10860.0      0.00000
      10865.0      0.00000
      10870.0      0.00000
      10875.0      0.00000
      10880.0      0.00000
      10885.0      0.00000
      10890.0      0.00000
      10895.0      0.00000
      10900.0      0.00000
      10905.0      0.00000
      10910.0      0.00000
      10915.0      0.00000
      10920.0      0.00000
      10925.0      0.00000
      10930.0      0.00000
      10935.0      0.00000
      10940.0      0.00000
      10945.0      0.00000
      10950.0      0.00000
      10955.0      0.00000
      10960.0      0.00000
      10965.0      0.00000
      10970.0      0.00000
      10975.0      0.00000
      10980.0      0.00000
      10985.0      0.00000
      10990.0      0.00000
      10995.0      0.00000
      11000.0      0.00000
