# DES system throughputs
# source: ~Flaugher 2010.  Calculations by Huan Lin, Aug 2010.
# Preliminary: CFHT mirror reflectivity used, some assumptions made 
# about the qe, filters, correctors.# DES i

      3000.00      0.00000
      3005.00      0.00000
      3010.00      0.00000
      3015.00      0.00000
      3020.00      0.00000
      3025.00      0.00000
      3030.00      0.00000
      3035.00      0.00000
      3040.00      0.00000
      3045.00      0.00000
      3050.00      0.00000
      3055.00      0.00000
      3060.00      0.00000
      3065.00      0.00000
      3070.00      0.00000
      3075.00      0.00000
      3080.00      0.00000
      3085.00      0.00000
      3090.00      0.00000
      3095.00      0.00000
      3100.00      0.00000
      3105.00      0.00000
      3110.00      0.00000
      3115.00      0.00000
      3120.00      0.00000
      3125.00      0.00000
      3130.00      0.00000
      3135.00      0.00000
      3140.00      0.00000
      3145.00      0.00000
      3150.00      0.00000
      3155.00      0.00000
      3160.00      0.00000
      3165.00      0.00000
      3170.00      0.00000
      3175.00      0.00000
      3180.00      0.00000
      3185.00      0.00000
      3190.00      0.00000
      3195.00      0.00000
      3200.00      0.00000
      3205.00      0.00000
      3210.00      0.00000
      3215.00      0.00000
      3220.00      0.00000
      3225.00      0.00000
      3230.00      0.00000
      3235.00      0.00000
      3240.00      0.00000
      3245.00      0.00000
      3250.00      0.00000
      3255.00      0.00000
      3260.00      0.00000
      3265.00      0.00000
      3270.00      0.00000
      3275.00      0.00000
      3280.00      0.00000
      3285.00      0.00000
      3290.00      0.00000
      3295.00      0.00000
      3300.00      0.00000
      3305.00      0.00000
      3310.00      0.00000
      3315.00      0.00000
      3320.00      0.00000
      3325.00      0.00000
      3330.00      0.00000
      3335.00      0.00000
      3340.00      0.00000
      3345.00      0.00000
      3350.00      0.00000
      3355.00      0.00000
      3360.00      0.00000
      3365.00      0.00000
      3370.00      0.00000
      3375.00      0.00000
      3380.00      0.00000
      3385.00      0.00000
      3390.00      0.00000
      3395.00      0.00000
      3400.00      0.00000
      3405.00      0.00000
      3410.00      0.00000
      3415.00      0.00000
      3420.00      0.00000
      3425.00      0.00000
      3430.00      0.00000
      3435.00      0.00000
      3440.00      0.00000
      3445.00      0.00000
      3450.00      0.00000
      3455.00      0.00000
      3460.00      0.00000
      3465.00      0.00000
      3470.00      0.00000
      3475.00      0.00000
      3480.00      0.00000
      3485.00      0.00000
      3490.00      0.00000
      3495.00      0.00000
      3500.00      0.00000
      3505.00      0.00000
      3510.00      0.00000
      3515.00      0.00000
      3520.00      0.00000
      3525.00      0.00000
      3530.00      0.00000
      3535.00      0.00000
      3540.00      0.00000
      3545.00      0.00000
      3550.00      0.00000
      3555.00      0.00000
      3560.00      0.00000
      3565.00      0.00000
      3570.00      0.00000
      3575.00      0.00000
      3580.00      0.00000
      3585.00      0.00000
      3590.00      0.00000
      3595.00      0.00000
      3600.00      0.00000
      3605.00      0.00000
      3610.00      0.00000
      3615.00      0.00000
      3620.00      0.00000
      3625.00      0.00000
      3630.00      0.00000
      3635.00      0.00000
      3640.00      0.00000
      3645.00      0.00000
      3650.00      0.00000
      3655.00      0.00000
      3660.00      0.00000
      3665.00      0.00000
      3670.00      0.00000
      3675.00      0.00000
      3680.00      0.00000
      3685.00      0.00000
      3690.00      0.00000
      3695.00      0.00000
      3700.00      0.00000
      3705.00      0.00000
      3710.00      0.00000
      3715.00      0.00000
      3720.00      0.00000
      3725.00      0.00000
      3730.00      0.00000
      3735.00      0.00000
      3740.00      0.00000
      3745.00      0.00000
      3750.00      0.00000
      3755.00      0.00000
      3760.00      0.00000
      3765.00      0.00000
      3770.00      0.00000
      3775.00      0.00000
      3780.00      0.00000
      3785.00      0.00000
      3790.00      0.00000
      3795.00      0.00000
      3800.00      0.00000
      3805.00      0.00000
      3810.00      0.00000
      3815.00      0.00000
      3820.00      0.00000
      3825.00      0.00000
      3830.00      0.00000
      3835.00      0.00000
      3840.00      0.00000
      3845.00      0.00000
      3850.00      0.00000
      3855.00      0.00000
      3860.00      0.00000
      3865.00      0.00000
      3870.00      0.00000
      3875.00      0.00000
      3880.00      0.00000
      3885.00      0.00000
      3890.00      0.00000
      3895.00      0.00000
      3900.00      0.00000
      3905.00      0.00000
      3910.00      0.00000
      3915.00      0.00000
      3920.00      0.00000
      3925.00      0.00000
      3930.00      0.00000
      3935.00      0.00000
      3940.00      0.00000
      3945.00      0.00000
      3950.00      0.00000
      3955.00      0.00000
      3960.00      0.00000
      3965.00      0.00000
      3970.00      0.00000
      3975.00      0.00000
      3980.00      0.00000
      3985.00      0.00000
      3990.00      0.00000
      3995.00      0.00000
      4000.00      0.00000
      4005.00      0.00000
      4010.00      0.00000
      4015.00      0.00000
      4020.00      0.00000
      4025.00      0.00000
      4030.00      0.00000
      4035.00      0.00000
      4040.00      0.00000
      4045.00      0.00000
      4050.00      0.00000
      4055.00      0.00000
      4060.00      0.00000
      4065.00      0.00000
      4070.00      0.00000
      4075.00      0.00000
      4080.00      0.00000
      4085.00      0.00000
      4090.00      0.00000
      4095.00      0.00000
      4100.00      0.00000
      4105.00      0.00000
      4110.00      0.00000
      4115.00      0.00000
      4120.00      0.00000
      4125.00      0.00000
      4130.00      0.00000
      4135.00      0.00000
      4140.00      0.00000
      4145.00      0.00000
      4150.00      0.00000
      4155.00      0.00000
      4160.00      0.00000
      4165.00      0.00000
      4170.00      0.00000
      4175.00      0.00000
      4180.00      0.00000
      4185.00      0.00000
      4190.00      0.00000
      4195.00      0.00000
      4200.00      0.00000
      4205.00      0.00000
      4210.00      0.00000
      4215.00      0.00000
      4220.00      0.00000
      4225.00      0.00000
      4230.00      0.00000
      4235.00      0.00000
      4240.00      0.00000
      4245.00      0.00000
      4250.00      0.00000
      4255.00      0.00000
      4260.00      0.00000
      4265.00      0.00000
      4270.00      0.00000
      4275.00      0.00000
      4280.00      0.00000
      4285.00      0.00000
      4290.00      0.00000
      4295.00      0.00000
      4300.00      0.00000
      4305.00      0.00000
      4310.00      0.00000
      4315.00      0.00000
      4320.00      0.00000
      4325.00      0.00000
      4330.00      0.00000
      4335.00      0.00000
      4340.00      0.00000
      4345.00      0.00000
      4350.00      0.00000
      4355.00      0.00000
      4360.00      0.00000
      4365.00      0.00000
      4370.00      0.00000
      4375.00      0.00000
      4380.00      0.00000
      4385.00      0.00000
      4390.00      0.00000
      4395.00      0.00000
      4400.00      0.00000
      4405.00      0.00000
      4410.00      0.00000
      4415.00      0.00000
      4420.00      0.00000
      4425.00      0.00000
      4430.00      0.00000
      4435.00      0.00000
      4440.00      0.00000
      4445.00      0.00000
      4450.00      0.00000
      4455.00      0.00000
      4460.00      0.00000
      4465.00      0.00000
      4470.00      0.00000
      4475.00      0.00000
      4480.00      0.00000
      4485.00      0.00000
      4490.00      0.00000
      4495.00      0.00000
      4500.00      0.00000
      4505.00      0.00000
      4510.00      0.00000
      4515.00      0.00000
      4520.00      0.00000
      4525.00      0.00000
      4530.00      0.00000
      4535.00      0.00000
      4540.00      0.00000
      4545.00      0.00000
      4550.00      0.00000
      4555.00      0.00000
      4560.00      0.00000
      4565.00      0.00000
      4570.00      0.00000
      4575.00      0.00000
      4580.00      0.00000
      4585.00      0.00000
      4590.00      0.00000
      4595.00      0.00000
      4600.00      0.00000
      4605.00      0.00000
      4610.00      0.00000
      4615.00      0.00000
      4620.00      0.00000
      4625.00      0.00000
      4630.00      0.00000
      4635.00      0.00000
      4640.00      0.00000
      4645.00      0.00000
      4650.00      0.00000
      4655.00      0.00000
      4660.00      0.00000
      4665.00      0.00000
      4670.00      0.00000
      4675.00      0.00000
      4680.00      0.00000
      4685.00      0.00000
      4690.00      0.00000
      4695.00      0.00000
      4700.00      0.00000
      4705.00      0.00000
      4710.00      0.00000
      4715.00      0.00000
      4720.00      0.00000
      4725.00      0.00000
      4730.00      0.00000
      4735.00      0.00000
      4740.00      0.00000
      4745.00      0.00000
      4750.00      0.00000
      4755.00      0.00000
      4760.00      0.00000
      4765.00      0.00000
      4770.00      0.00000
      4775.00      0.00000
      4780.00      0.00000
      4785.00      0.00000
      4790.00      0.00000
      4795.00      0.00000
      4800.00      0.00000
      4805.00      0.00000
      4810.00      0.00000
      4815.00      0.00000
      4820.00      0.00000
      4825.00      0.00000
      4830.00      0.00000
      4835.00      0.00000
      4840.00      0.00000
      4845.00      0.00000
      4850.00      0.00000
      4855.00      0.00000
      4860.00      0.00000
      4865.00      0.00000
      4870.00      0.00000
      4875.00      0.00000
      4880.00      0.00000
      4885.00      0.00000
      4890.00      0.00000
      4895.00      0.00000
      4900.00      0.00000
      4905.00      0.00000
      4910.00      0.00000
      4915.00      0.00000
      4920.00      0.00000
      4925.00      0.00000
      4930.00      0.00000
      4935.00      0.00000
      4940.00      0.00000
      4945.00      0.00000
      4950.00      0.00000
      4955.00      0.00000
      4960.00      0.00000
      4965.00      0.00000
      4970.00      0.00000
      4975.00      0.00000
      4980.00      0.00000
      4985.00      0.00000
      4990.00      0.00000
      4995.00      0.00000
      5000.00      0.00000
      5005.00      0.00000
      5010.00      0.00000
      5015.00      0.00000
      5020.00      0.00000
      5025.00      0.00000
      5030.00      0.00000
      5035.00      0.00000
      5040.00      0.00000
      5045.00      0.00000
      5050.00      0.00000
      5055.00      0.00000
      5060.00      0.00000
      5065.00      0.00000
      5070.00      0.00000
      5075.00      0.00000
      5080.00      0.00000
      5085.00      0.00000
      5090.00      0.00000
      5095.00      0.00000
      5100.00      0.00000
      5105.00      0.00000
      5110.00      0.00000
      5115.00      0.00000
      5120.00      0.00000
      5125.00      0.00000
      5130.00      0.00000
      5135.00      0.00000
      5140.00      0.00000
      5145.00      0.00000
      5150.00      0.00000
      5155.00      0.00000
      5160.00      0.00000
      5165.00      0.00000
      5170.00      0.00000
      5175.00      0.00000
      5180.00      0.00000
      5185.00      0.00000
      5190.00      0.00000
      5195.00      0.00000
      5200.00      0.00000
      5205.00      0.00000
      5210.00      0.00000
      5215.00      0.00000
      5220.00      0.00000
      5225.00      0.00000
      5230.00      0.00000
      5235.00      0.00000
      5240.00      0.00000
      5245.00      0.00000
      5250.00      0.00000
      5255.00      0.00000
      5260.00      0.00000
      5265.00      0.00000
      5270.00      0.00000
      5275.00      0.00000
      5280.00      0.00000
      5285.00      0.00000
      5290.00      0.00000
      5295.00      0.00000
      5300.00      0.00000
      5305.00      0.00000
      5310.00      0.00000
      5315.00      0.00000
      5320.00      0.00000
      5325.00      0.00000
      5330.00      0.00000
      5335.00      0.00000
      5340.00      0.00000
      5345.00      0.00000
      5350.00      0.00000
      5355.00      0.00000
      5360.00      0.00000
      5365.00      0.00000
      5370.00      0.00000
      5375.00      0.00000
      5380.00      0.00000
      5385.00      0.00000
      5390.00      0.00000
      5395.00      0.00000
      5400.00      0.00000
      5405.00      0.00000
      5410.00      0.00000
      5415.00      0.00000
      5420.00      0.00000
      5425.00      0.00000
      5430.00      0.00000
      5435.00      0.00000
      5440.00      0.00000
      5445.00      0.00000
      5450.00      0.00000
      5455.00      0.00000
      5460.00      0.00000
      5465.00      0.00000
      5470.00      0.00000
      5475.00      0.00000
      5480.00      0.00000
      5485.00      0.00000
      5490.00      0.00000
      5495.00      0.00000
      5500.00      0.00000
      5505.00      0.00000
      5510.00      0.00000
      5515.00      0.00000
      5520.00      0.00000
      5525.00      0.00000
      5530.00      0.00000
      5535.00      0.00000
      5540.00      0.00000
      5545.00      0.00000
      5550.00      0.00000
      5555.00      0.00000
      5560.00      0.00000
      5565.00      0.00000
      5570.00      0.00000
      5575.00      0.00000
      5580.00      0.00000
      5585.00      0.00000
      5590.00      0.00000
      5595.00      0.00000
      5600.00      0.00000
      5605.00      0.00000
      5610.00      0.00000
      5615.00      0.00000
      5620.00      0.00000
      5625.00      0.00000
      5630.00      0.00000
      5635.00      0.00000
      5640.00      0.00000
      5645.00      0.00000
      5650.00      0.00000
      5655.00      0.00000
      5660.00      0.00000
      5665.00      0.00000
      5670.00      0.00000
      5675.00      0.00000
      5680.00      0.00000
      5685.00      0.00000
      5690.00      0.00000
      5695.00      0.00000
      5700.00      0.00000
      5705.00      0.00000
      5710.00      0.00000
      5715.00      0.00000
      5720.00      0.00000
      5725.00      0.00000
      5730.00      0.00000
      5735.00      0.00000
      5740.00      0.00000
      5745.00      0.00000
      5750.00      0.00000
      5755.00      0.00000
      5760.00      0.00000
      5765.00      0.00000
      5770.00      0.00000
      5775.00      0.00000
      5780.00      0.00000
      5785.00      0.00000
      5790.00      0.00000
      5795.00      0.00000
      5800.00      0.00000
      5805.00      0.00000
      5810.00      0.00000
      5815.00      0.00000
      5820.00      0.00000
      5825.00      0.00000
      5830.00      0.00000
      5835.00      0.00000
      5840.00      0.00000
      5845.00      0.00000
      5850.00      0.00000
      5855.00      0.00000
      5860.00      0.00000
      5865.00      0.00000
      5870.00      0.00000
      5875.00      0.00000
      5880.00      0.00000
      5885.00      0.00000
      5890.00      0.00000
      5895.00      0.00000
      5900.00      0.00000
      5905.00      0.00000
      5910.00      0.00000
      5915.00      0.00000
      5920.00      0.00000
      5925.00      0.00000
      5930.00      0.00000
      5935.00      0.00000
      5940.00      0.00000
      5945.00      0.00000
      5950.00      0.00000
      5955.00      0.00000
      5960.00      0.00000
      5965.00      0.00000
      5970.00      0.00000
      5975.00      0.00000
      5980.00      0.00000
      5985.00      0.00000
      5990.00      0.00000
      5995.00      0.00000
      6000.00      0.00000
      6005.00      0.00000
      6010.00      0.00000
      6015.00      0.00000
      6020.00      0.00000
      6025.00      0.00000
      6030.00      0.00000
      6035.00      0.00000
      6040.00      0.00000
      6045.00      0.00000
      6050.00      0.00000
      6055.00      0.00000
      6060.00      0.00000
      6065.00      0.00000
      6070.00      0.00000
      6075.00      0.00000
      6080.00      0.00000
      6085.00      0.00000
      6090.00      0.00000
      6095.00      0.00000
      6100.00      0.00000
      6105.00      0.00000
      6110.00      0.00000
      6115.00      0.00000
      6120.00      0.00000
      6125.00      0.00000
      6130.00      0.00000
      6135.00      0.00000
      6140.00      0.00000
      6145.00      0.00000
      6150.00      0.00000
      6155.00      0.00000
      6160.00      0.00000
      6165.00      0.00000
      6170.00      0.00000
      6175.00      0.00000
      6180.00      0.00000
      6185.00      0.00000
      6190.00      0.00000
      6195.00      0.00000
      6200.00      0.00000
      6205.00      0.00000
      6210.00      0.00000
      6215.00      0.00000
      6220.00      0.00000
      6225.00      0.00000
      6230.00      0.00000
      6235.00      0.00000
      6240.00      0.00000
      6245.00      0.00000
      6250.00      0.00000
      6255.00      0.00000
      6260.00      0.00000
      6265.00      0.00000
      6270.00      0.00000
      6275.00      0.00000
      6280.00      0.00000
      6285.00      0.00000
      6290.00      0.00000
      6295.00      0.00000
      6300.00      0.00000
      6305.00      0.00000
      6310.00      0.00000
      6315.00      0.00000
      6320.00      0.00000
      6325.00      0.00000
      6330.00      0.00000
      6335.00      0.00000
      6340.00      0.00000
      6345.00      0.00000
      6350.00      0.00000
      6355.00      0.00000
      6360.00      0.00000
      6365.00      0.00000
      6370.00      0.00000
      6375.00      0.00000
      6380.00      0.00000
      6385.00      0.00000
      6390.00      0.00000
      6395.00      0.00000
      6400.00      0.00000
      6405.00      0.00000
      6410.00      0.00000
      6415.00      0.00000
      6420.00      0.00000
      6425.00      0.00000
      6430.00      0.00000
      6435.00      0.00000
      6440.00      0.00000
      6445.00      0.00000
      6450.00      0.00000
      6455.00      0.00000
      6460.00      0.00000
      6465.00      0.00000
      6470.00      0.00000
      6475.00      0.00000
      6480.00      0.00000
      6485.00      0.00000
      6490.00      0.00000
      6495.00      0.00000
      6500.00      0.00000
      6505.00      0.00000
      6510.00      0.00000
      6515.00      0.00000
      6520.00      0.00000
      6525.00      0.00000
      6530.00      0.00000
      6535.00      0.00000
      6540.00      0.00000
      6545.00      0.00000
      6550.00      0.00000
      6555.00      0.00000
      6560.00      0.00000
      6565.00      0.00000
      6570.00      0.00000
      6575.00      0.00000
      6580.00      0.00000
      6585.00      0.00000
      6590.00      0.00000
      6595.00      0.00000
      6600.00      0.00000
      6605.00      0.00000
      6610.00      0.00000
      6615.00      0.00000
      6620.00      0.00000
      6625.00      0.00000
      6630.00      0.00000
      6635.00      0.00000
      6640.00      0.00000
      6645.00      0.00000
      6650.00      0.00000
      6655.00      0.00000
      6660.00      0.00000
      6665.00      0.00000
      6670.00      0.00000
      6675.00      0.00000
      6680.00      0.00000
      6685.00      0.00000
      6690.00      0.00000
      6695.00      0.00000
      6700.00      0.00000
      6705.00      0.00000
      6710.00      0.00000
      6715.00      0.00000
      6720.00      0.00000
      6725.00      0.00000
      6730.00      0.00000
      6735.00      0.00000
      6740.00      0.00000
      6745.00      0.00000
      6750.00      0.00000
      6755.00      0.00000
      6760.00      0.00000
      6765.00  1.00000e-05
      6770.00  1.00000e-05
      6775.00  1.00000e-05
      6780.00  1.00000e-05
      6785.00  1.00000e-05
      6790.00  1.00000e-05
      6795.00  1.00000e-05
      6800.00  1.00000e-05
      6805.00  2.00000e-05
      6810.00  2.00000e-05
      6815.00  2.00000e-05
      6820.00  3.00000e-05
      6825.00  3.00000e-05
      6830.00  3.00000e-05
      6835.00  4.00000e-05
      6840.00  5.00000e-05
      6845.00  6.00000e-05
      6850.00  6.00000e-05
      6855.00  7.00000e-05
      6860.00  9.00000e-05
      6865.00  0.000100000
      6870.00  0.000120000
      6875.00  0.000140000
      6880.00  0.000170000
      6885.00  0.000200000
      6890.00  0.000240000
      6895.00  0.000290000
      6900.00  0.000350000
      6905.00  0.000420000
      6910.00  0.000510000
      6915.00  0.000620000
      6920.00  0.000760000
      6925.00  0.000920000
      6930.00   0.00112000
      6935.00   0.00138000
      6940.00   0.00168000
      6945.00   0.00207000
      6950.00   0.00256000
      6955.00   0.00316000
      6960.00   0.00392000
      6965.00   0.00487000
      6970.00   0.00607000
      6975.00   0.00757000
      6980.00   0.00949000
      6985.00    0.0118800
      6990.00    0.0148200
      6995.00    0.0186300
      7000.00    0.0234300
      7005.00    0.0293900
      7010.00    0.0370100
      7015.00    0.0465700
      7020.00    0.0585600
      7025.00    0.0733100
      7030.00    0.0911000
      7035.00     0.112850
      7040.00     0.137920
      7045.00     0.167550
      7050.00     0.200590
      7055.00     0.235280
      7060.00     0.271970
      7065.00     0.308730
      7070.00     0.343480
      7075.00     0.375800
      7080.00     0.403870
      7085.00     0.427290
      7090.00     0.445960
      7095.00     0.460110
      7100.00     0.470320
      7105.00     0.477320
      7110.00     0.481940
      7115.00     0.484670
      7120.00     0.486240
      7125.00     0.486900
      7130.00     0.487150
      7135.00     0.487310
      7140.00     0.487360
      7145.00     0.481700
      7150.00     0.476160
      7155.00     0.470800
      7160.00     0.465660
      7165.00     0.460770
      7170.00     0.455770
      7175.00     0.451100
      7180.00     0.446540
      7185.00     0.450520
      7190.00     0.454610
      7195.00     0.458630
      7200.00     0.462830
      7205.00     0.466810
      7210.00     0.470800
      7215.00     0.474840
      7220.00     0.478760
      7225.00     0.480340
      7230.00     0.481840
      7235.00     0.483120
      7240.00     0.484320
      7245.00     0.485390
      7250.00     0.486320
      7255.00     0.487240
      7260.00     0.488090
      7265.00     0.488840
      7270.00     0.489530
      7275.00     0.490190
      7280.00     0.490750
      7285.00     0.491250
      7290.00     0.491720
      7295.00     0.492120
      7300.00     0.492470
      7305.00     0.495480
      7310.00     0.498340
      7315.00     0.501350
      7320.00     0.504280
      7325.00     0.507310
      7330.00     0.510260
      7335.00     0.513380
      7340.00     0.516450
      7345.00     0.516810
      7350.00     0.517050
      7355.00     0.517410
      7360.00     0.517750
      7365.00     0.518070
      7370.00     0.518400
      7375.00     0.518590
      7380.00     0.518870
      7385.00     0.519070
      7390.00     0.519260
      7395.00     0.519400
      7400.00     0.519500
      7405.00     0.519730
      7410.00     0.519880
      7415.00     0.520110
      7420.00     0.520190
      7425.00     0.520530
      7430.00     0.520750
      7435.00     0.520930
      7440.00     0.521090
      7445.00     0.521210
      7450.00     0.521280
      7455.00     0.521430
      7460.00     0.521540
      7465.00     0.521470
      7470.00     0.521470
      7475.00     0.521590
      7480.00     0.521590
      7485.00     0.521540
      7490.00     0.521540
      7495.00     0.521500
      7500.00     0.521590
      7505.00     0.521560
      7510.00     0.521660
      7515.00     0.521860
      7520.00     0.521980
      7525.00     0.522160
      7530.00     0.522380
      7535.00     0.522510
      7540.00     0.522740
      7545.00     0.522900
      7550.00     0.523090
      7555.00     0.523270
      7560.00     0.523400
      7565.00     0.523630
      7570.00     0.523780
      7575.00     0.515710
      7580.00     0.507570
      7585.00     0.499450
      7590.00     0.452990
      7595.00     0.356630
      7600.00     0.290330
      7605.00     0.224010
      7610.00     0.228190
      7615.00     0.279480
      7620.00     0.330830
      7625.00     0.315010
      7630.00     0.299180
      7635.00     0.296340
      7640.00     0.313020
      7645.00     0.329640
      7650.00     0.366620
      7655.00     0.401650
      7660.00     0.426220
      7665.00     0.447530
      7670.00     0.468920
      7675.00     0.495110
      7680.00     0.528420
      7685.00     0.528700
      7690.00     0.528970
      7695.00     0.529160
      7700.00     0.529480
      7705.00     0.529360
      7710.00     0.529330
      7715.00     0.529320
      7720.00     0.529380
      7725.00     0.529470
      7730.00     0.529540
      7735.00     0.529610
      7740.00     0.529770
      7745.00     0.529980
      7750.00     0.530130
      7755.00     0.530280
      7760.00     0.530590
      7765.00     0.530650
      7770.00     0.530870
      7775.00     0.530940
      7780.00     0.531010
      7785.00     0.531050
      7790.00     0.531140
      7795.00     0.531190
      7800.00     0.531360
      7805.00     0.531380
      7810.00     0.531460
      7815.00     0.531570
      7820.00     0.531560
      7825.00     0.531700
      7830.00     0.531780
      7835.00     0.531720
      7840.00     0.531710
      7845.00     0.531660
      7850.00     0.531590
      7855.00     0.531550
      7860.00     0.531450
      7865.00     0.531500
      7870.00     0.531520
      7875.00     0.531370
      7880.00     0.531280
      7885.00     0.531170
      7890.00     0.530930
      7895.00     0.530790
      7900.00     0.530540
      7905.00     0.530280
      7910.00     0.530190
      7915.00     0.529970
      7920.00     0.529900
      7925.00     0.529660
      7930.00     0.529590
      7935.00     0.529440
      7940.00     0.529430
      7945.00     0.529430
      7950.00     0.529380
      7955.00     0.529220
      7960.00     0.529080
      7965.00     0.528940
      7970.00     0.528970
      7975.00     0.528810
      7980.00     0.528780
      7985.00     0.528720
      7990.00     0.528710
      7995.00     0.528750
      8000.00     0.528760
      8005.00     0.528740
      8010.00     0.528790
      8015.00     0.528740
      8020.00     0.528860
      8025.00     0.528770
      8030.00     0.528780
      8035.00     0.528810
      8040.00     0.528810
      8045.00     0.528870
      8050.00     0.528790
      8055.00     0.528630
      8060.00     0.528620
      8065.00     0.528500
      8070.00     0.528320
      8075.00     0.528220
      8080.00     0.527970
      8085.00     0.527820
      8090.00     0.527640
      8095.00     0.527440
      8100.00     0.527150
      8105.00     0.523140
      8110.00     0.519190
      8115.00     0.515220
      8120.00     0.511420
      8125.00     0.507570
      8130.00     0.503710
      8135.00     0.499860
      8140.00     0.496150
      8145.00     0.495940
      8150.00     0.495770
      8155.00     0.495770
      8160.00     0.495860
      8165.00     0.495800
      8170.00     0.495800
      8175.00     0.495830
      8180.00     0.495820
      8185.00     0.496050
      8190.00     0.496120
      8195.00     0.496320
      8200.00     0.496600
      8205.00     0.496740
      8210.00     0.496920
      8215.00     0.497150
      8220.00     0.497420
      8225.00     0.497670
      8230.00     0.497960
      8235.00     0.498230
      8240.00     0.498630
      8245.00     0.498870
      8250.00     0.499150
      8255.00     0.499520
      8260.00     0.499690
      8265.00     0.499960
      8270.00     0.500240
      8275.00     0.500490
      8280.00     0.500830
      8285.00     0.501030
      8290.00     0.501200
      8295.00     0.501330
      8300.00     0.501420
      8305.00     0.504810
      8310.00     0.508050
      8315.00     0.511390
      8320.00     0.514660
      8325.00     0.517900
      8330.00     0.521140
      8335.00     0.524400
      8340.00     0.527730
      8345.00     0.530850
      8350.00     0.533950
      8355.00     0.534080
      8360.00     0.534110
      8365.00     0.534080
      8370.00     0.533920
      8375.00     0.533990
      8380.00     0.533820
      8385.00     0.533870
      8390.00     0.533820
      8395.00     0.533700
      8400.00     0.533680
      8405.00     0.533760
      8410.00     0.533680
      8415.00     0.533510
      8420.00     0.533200
      8425.00     0.532880
      8430.00     0.532600
      8435.00     0.531800
      8440.00     0.530660
      8445.00     0.528740
      8450.00     0.526020
      8455.00     0.522210
      8460.00     0.516740
      8465.00     0.509460
      8470.00     0.499600
      8475.00     0.486740
      8480.00     0.470630
      8485.00     0.450950
      8490.00     0.427520
      8495.00     0.400660
      8500.00     0.370890
      8505.00     0.338880
      8510.00     0.305860
      8515.00     0.271450
      8520.00     0.238010
      8525.00     0.206730
      8530.00     0.177410
      8535.00     0.151190
      8540.00     0.127870
      8545.00     0.107460
      8550.00    0.0898800
      8555.00    0.0749500
      8560.00    0.0625500
      8565.00    0.0520300
      8570.00    0.0433500
      8575.00    0.0363000
      8580.00    0.0302100
      8585.00    0.0251800
      8590.00    0.0211100
      8595.00    0.0176900
      8600.00    0.0149100
      8605.00    0.0125600
      8610.00    0.0106100
      8615.00   0.00897000
      8620.00   0.00761000
      8625.00   0.00647000
      8630.00   0.00553000
      8635.00   0.00474000
      8640.00   0.00405000
      8645.00   0.00348000
      8650.00   0.00300000
      8655.00   0.00259000
      8660.00   0.00224000
      8665.00   0.00193000
      8670.00   0.00169000
      8675.00   0.00147000
      8680.00   0.00127000
      8685.00   0.00111000
      8690.00  0.000980000
      8695.00  0.000860000
      8700.00  0.000750000
      8705.00  0.000660000
      8710.00  0.000580000
      8715.00  0.000510000
      8720.00  0.000460000
      8725.00  0.000400000
      8730.00  0.000360000
      8735.00  0.000320000
      8740.00  0.000290000
      8745.00  0.000250000
      8750.00  0.000230000
      8755.00  0.000210000
      8760.00  0.000180000
      8765.00  0.000170000
      8770.00  0.000150000
      8775.00  0.000130000
      8780.00  0.000120000
      8785.00  0.000110000
      8790.00  0.000100000
      8795.00  8.00000e-05
      8800.00  0.000100000
      8805.00  9.00000e-05
      8810.00  9.00000e-05
      8815.00  8.00000e-05
      8820.00  7.00000e-05
      8825.00  7.00000e-05
      8830.00  7.00000e-05
      8835.00  6.00000e-05
      8840.00  6.00000e-05
      8845.00  5.00000e-05
      8850.00  6.00000e-05
      8855.00  5.00000e-05
      8860.00  5.00000e-05
      8865.00  5.00000e-05
      8870.00  4.00000e-05
      8875.00  4.00000e-05
      8880.00  4.00000e-05
      8885.00  4.00000e-05
      8890.00  4.00000e-05
      8895.00  4.00000e-05
      8900.00  3.00000e-05
      8905.00  3.00000e-05
      8910.00  3.00000e-05
      8915.00  3.00000e-05
      8920.00  3.00000e-05
      8925.00  3.00000e-05
      8930.00  3.00000e-05
      8935.00  3.00000e-05
      8940.00  3.00000e-05
      8945.00  2.00000e-05
      8950.00  2.00000e-05
      8955.00  2.00000e-05
      8960.00  2.00000e-05
      8965.00  2.00000e-05
      8970.00  2.00000e-05
      8975.00  2.00000e-05
      8980.00  2.00000e-05
      8985.00  2.00000e-05
      8990.00  2.00000e-05
      8995.00  2.00000e-05
      9000.00  2.00000e-05
      9005.00  2.00000e-05
      9010.00  2.00000e-05
      9015.00  2.00000e-05
      9020.00  2.00000e-05
      9025.00  2.00000e-05
      9030.00  2.00000e-05
      9035.00  2.00000e-05
      9040.00  2.00000e-05
      9045.00  2.00000e-05
      9050.00  2.00000e-05
      9055.00  2.00000e-05
      9060.00  2.00000e-05
      9065.00  2.00000e-05
      9070.00  2.00000e-05
      9075.00  2.00000e-05
      9080.00  2.00000e-05
      9085.00  2.00000e-05
      9090.00  2.00000e-05
      9095.00  2.00000e-05
      9100.00  2.00000e-05
      9105.00  2.00000e-05
      9110.00  2.00000e-05
      9115.00  2.00000e-05
      9120.00  2.00000e-05
      9125.00  2.00000e-05
      9130.00  2.00000e-05
      9135.00  2.00000e-05
      9140.00  2.00000e-05
      9145.00  2.00000e-05
      9150.00  2.00000e-05
      9155.00  2.00000e-05
      9160.00  2.00000e-05
      9165.00  2.00000e-05
      9170.00  2.00000e-05
      9175.00  2.00000e-05
      9180.00  2.00000e-05
      9185.00  2.00000e-05
      9190.00  2.00000e-05
      9195.00  2.00000e-05
      9200.00  2.00000e-05
      9205.00  2.00000e-05
      9210.00  2.00000e-05
      9215.00  2.00000e-05
      9220.00  2.00000e-05
      9225.00  2.00000e-05
      9230.00  2.00000e-05
      9235.00  2.00000e-05
      9240.00  2.00000e-05
      9245.00  2.00000e-05
      9250.00  2.00000e-05
      9255.00  2.00000e-05
      9260.00  2.00000e-05
      9265.00  1.00000e-05
      9270.00  2.00000e-05
      9275.00  1.00000e-05
      9280.00  2.00000e-05
      9285.00  2.00000e-05
      9290.00  2.00000e-05
      9295.00  2.00000e-05
      9300.00  1.00000e-05
      9305.00  2.00000e-05
      9310.00  2.00000e-05
      9315.00  1.00000e-05
      9320.00  1.00000e-05
      9325.00  1.00000e-05
      9330.00  1.00000e-05
      9335.00  1.00000e-05
      9340.00  1.00000e-05
      9345.00  1.00000e-05
      9350.00  1.00000e-05
      9355.00  1.00000e-05
      9360.00  1.00000e-05
      9365.00  1.00000e-05
      9370.00  1.00000e-05
      9375.00  1.00000e-05
      9380.00  1.00000e-05
      9385.00  1.00000e-05
      9390.00  1.00000e-05
      9395.00  1.00000e-05
      9400.00  1.00000e-05
      9405.00  1.00000e-05
      9410.00  1.00000e-05
      9415.00  1.00000e-05
      9420.00  1.00000e-05
      9425.00  1.00000e-05
      9430.00  1.00000e-05
      9435.00  1.00000e-05
      9440.00  1.00000e-05
      9445.00  1.00000e-05
      9450.00  1.00000e-05
      9455.00  1.00000e-05
      9460.00  1.00000e-05
      9465.00  1.00000e-05
      9470.00  1.00000e-05
      9475.00  1.00000e-05
      9480.00  1.00000e-05
      9485.00  1.00000e-05
      9490.00  1.00000e-05
      9495.00  1.00000e-05
      9500.00  1.00000e-05
      9505.00  1.00000e-05
      9510.00  1.00000e-05
      9515.00  1.00000e-05
      9520.00  1.00000e-05
      9525.00  1.00000e-05
      9530.00  1.00000e-05
      9535.00  1.00000e-05
      9540.00  1.00000e-05
      9545.00  1.00000e-05
      9550.00  1.00000e-05
      9555.00  1.00000e-05
      9560.00  1.00000e-05
      9565.00  1.00000e-05
      9570.00  1.00000e-05
      9575.00  1.00000e-05
      9580.00  1.00000e-05
      9585.00  1.00000e-05
      9590.00  1.00000e-05
      9595.00  1.00000e-05
      9600.00  1.00000e-05
      9605.00  1.00000e-05
      9610.00  1.00000e-05
      9615.00  1.00000e-05
      9620.00  1.00000e-05
      9625.00  1.00000e-05
      9630.00  1.00000e-05
      9635.00  1.00000e-05
      9640.00  2.00000e-05
      9645.00  1.00000e-05
      9650.00  2.00000e-05
      9655.00  1.00000e-05
      9660.00  2.00000e-05
      9665.00  2.00000e-05
      9670.00  1.00000e-05
      9675.00  2.00000e-05
      9680.00  2.00000e-05
      9685.00  2.00000e-05
      9690.00  1.00000e-05
      9695.00  1.00000e-05
      9700.00  2.00000e-05
      9705.00  2.00000e-05
      9710.00  1.00000e-05
      9715.00  1.00000e-05
      9720.00  1.00000e-05
      9725.00  2.00000e-05
      9730.00  1.00000e-05
      9735.00  1.00000e-05
      9740.00  1.00000e-05
      9745.00  1.00000e-05
      9750.00  2.00000e-05
      9755.00  1.00000e-05
      9760.00  1.00000e-05
      9765.00  2.00000e-05
      9770.00  1.00000e-05
      9775.00  2.00000e-05
      9780.00  1.00000e-05
      9785.00  1.00000e-05
      9790.00  2.00000e-05
      9795.00  1.00000e-05
      9800.00  2.00000e-05
      9805.00  1.00000e-05
      9810.00  1.00000e-05
      9815.00  1.00000e-05
      9820.00  1.00000e-05
      9825.00  1.00000e-05
      9830.00  1.00000e-05
      9835.00  2.00000e-05
      9840.00  1.00000e-05
      9845.00  1.00000e-05
      9850.00  1.00000e-05
      9855.00  1.00000e-05
      9860.00  1.00000e-05
      9865.00  2.00000e-05
      9870.00  1.00000e-05
      9875.00  2.00000e-05
      9880.00  1.00000e-05
      9885.00  1.00000e-05
      9890.00  2.00000e-05
      9895.00  1.00000e-05
      9900.00  1.00000e-05
      9905.00  1.00000e-05
      9910.00  1.00000e-05
      9915.00  1.00000e-05
      9920.00  1.00000e-05
      9925.00  1.00000e-05
      9930.00  1.00000e-05
      9935.00  1.00000e-05
      9940.00  1.00000e-05
      9945.00  1.00000e-05
      9950.00  1.00000e-05
      9955.00  1.00000e-05
      9960.00  1.00000e-05
      9965.00  1.00000e-05
      9970.00  1.00000e-05
      9975.00  1.00000e-05
      9980.00  1.00000e-05
      9985.00  1.00000e-05
      9990.00  1.00000e-05
      9995.00  1.00000e-05
      10000.0  1.00000e-05
      10005.0  1.00000e-05
      10010.0  1.00000e-05
      10015.0  1.00000e-05
      10020.0  1.00000e-05
      10025.0  1.00000e-05
      10030.0  1.00000e-05
      10035.0  1.00000e-05
      10040.0  1.00000e-05
      10045.0  1.00000e-05
      10050.0  1.00000e-05
      10055.0  1.00000e-05
      10060.0  1.00000e-05
      10065.0  1.00000e-05
      10070.0  1.00000e-05
      10075.0  1.00000e-05
      10080.0  1.00000e-05
      10085.0  1.00000e-05
      10090.0  1.00000e-05
      10095.0  1.00000e-05
      10100.0  1.00000e-05
      10105.0  1.00000e-05
      10110.0  1.00000e-05
      10115.0  1.00000e-05
      10120.0  1.00000e-05
      10125.0  1.00000e-05
      10130.0  1.00000e-05
      10135.0  1.00000e-05
      10140.0  1.00000e-05
      10145.0  1.00000e-05
      10150.0  1.00000e-05
      10155.0  1.00000e-05
      10160.0  1.00000e-05
      10165.0  1.00000e-05
      10170.0  1.00000e-05
      10175.0  1.00000e-05
      10180.0  1.00000e-05
      10185.0  1.00000e-05
      10190.0  1.00000e-05
      10195.0  1.00000e-05
      10200.0  1.00000e-05
      10205.0  1.00000e-05
      10210.0  1.00000e-05
      10215.0  1.00000e-05
      10220.0  1.00000e-05
      10225.0  1.00000e-05
      10230.0  1.00000e-05
      10235.0  1.00000e-05
      10240.0  1.00000e-05
      10245.0  1.00000e-05
      10250.0  1.00000e-05
      10255.0  1.00000e-05
      10260.0  1.00000e-05
      10265.0      0.00000
      10270.0  1.00000e-05
      10275.0  1.00000e-05
      10280.0  1.00000e-05
      10285.0  1.00000e-05
      10290.0      0.00000
      10295.0  1.00000e-05
      10300.0      0.00000
      10305.0      0.00000
      10310.0  1.00000e-05
      10315.0      0.00000
      10320.0      0.00000
      10325.0      0.00000
      10330.0      0.00000
      10335.0      0.00000
      10340.0      0.00000
      10345.0      0.00000
      10350.0      0.00000
      10355.0      0.00000
      10360.0      0.00000
      10365.0      0.00000
      10370.0      0.00000
      10375.0      0.00000
      10380.0      0.00000
      10385.0      0.00000
      10390.0      0.00000
      10395.0      0.00000
      10400.0      0.00000
      10405.0      0.00000
      10410.0      0.00000
      10415.0      0.00000
      10420.0      0.00000
      10425.0      0.00000
      10430.0      0.00000
      10435.0      0.00000
      10440.0      0.00000
      10445.0      0.00000
      10450.0      0.00000
      10455.0      0.00000
      10460.0      0.00000
      10465.0      0.00000
      10470.0      0.00000
      10475.0      0.00000
      10480.0      0.00000
      10485.0      0.00000
      10490.0      0.00000
      10495.0      0.00000
      10500.0      0.00000
      10505.0      0.00000
      10510.0      0.00000
      10515.0      0.00000
      10520.0      0.00000
      10525.0      0.00000
      10530.0      0.00000
      10535.0      0.00000
      10540.0      0.00000
      10545.0      0.00000
      10550.0      0.00000
      10555.0      0.00000
      10560.0      0.00000
      10565.0      0.00000
      10570.0      0.00000
      10575.0      0.00000
      10580.0      0.00000
      10585.0      0.00000
      10590.0      0.00000
      10595.0      0.00000
      10600.0      0.00000
      10605.0      0.00000
      10610.0      0.00000
      10615.0      0.00000
      10620.0      0.00000
      10625.0      0.00000
      10630.0      0.00000
      10635.0      0.00000
      10640.0      0.00000
      10645.0      0.00000
      10650.0      0.00000
      10655.0      0.00000
      10660.0      0.00000
      10665.0      0.00000
      10670.0      0.00000
      10675.0      0.00000
      10680.0      0.00000
      10685.0      0.00000
      10690.0      0.00000
      10695.0      0.00000
      10700.0      0.00000
      10705.0      0.00000
      10710.0      0.00000
      10715.0      0.00000
      10720.0      0.00000
      10725.0      0.00000
      10730.0      0.00000
      10735.0      0.00000
      10740.0      0.00000
      10745.0      0.00000
      10750.0      0.00000
      10755.0      0.00000
      10760.0      0.00000
      10765.0      0.00000
      10770.0      0.00000
      10775.0      0.00000
      10780.0      0.00000
      10785.0      0.00000
      10790.0      0.00000
      10795.0      0.00000
      10800.0      0.00000
      10805.0      0.00000
      10810.0      0.00000
      10815.0      0.00000
      10820.0      0.00000
      10825.0      0.00000
      10830.0      0.00000
      10835.0      0.00000
      10840.0      0.00000
      10845.0      0.00000
      10850.0      0.00000
      10855.0      0.00000
      10860.0      0.00000
      10865.0      0.00000
      10870.0      0.00000
      10875.0      0.00000
      10880.0      0.00000
      10885.0      0.00000
      10890.0      0.00000
      10895.0      0.00000
      10900.0      0.00000
      10905.0      0.00000
      10910.0      0.00000
      10915.0      0.00000
      10920.0      0.00000
      10925.0      0.00000
      10930.0      0.00000
      10935.0      0.00000
      10940.0      0.00000
      10945.0      0.00000
      10950.0      0.00000
      10955.0      0.00000
      10960.0      0.00000
      10965.0      0.00000
      10970.0      0.00000
      10975.0      0.00000
      10980.0      0.00000
      10985.0      0.00000
      10990.0      0.00000
      10995.0      0.00000
      11000.0      0.00000
