# Table 5 System throughput curve for the WFCAM H filter
# 1.0mm water vapour, 1.3 airmass
# Col 1: wavelength (microns)
# Col 2: throughput
#
  13510.00        0.000000000
  13515.00        0.000000000
  13520.00        0.000000000
  13525.00        0.000000000
  13530.00        0.000000000
  13535.00        0.000000000
  13540.00        0.000000000
  13545.00        0.000000000
  13550.00        0.000000000
  13555.00        0.000000000
  13560.00        0.000000000
  13565.00        0.000000000
  13570.00        0.000000000
  13575.00        0.000000000
  13580.00        0.000000000
  13585.00        0.000000000
  13590.00        0.000000000
  13595.00        0.000000000
  13600.00        0.000000000
  13605.00        0.000000000
  13610.00        0.000000000
  13615.00        0.000000000
  13620.00        0.000000000
  13625.00        0.000000000
  13630.00        0.000000000
  13635.00        0.000000000
  13640.00        0.000000000
  13645.00        0.000000000
  13650.00        0.000000000
  13655.00        0.000000000
  13660.00        0.000000000
  13665.00        0.000000000
  13670.00        0.000000000
  13675.00        0.000000000
  13680.00        0.000000000
  13685.00        0.000000000
  13690.00        0.000000000
  13695.00        0.000000000
  13700.00        0.000000000
  13705.00        0.000000000
  13710.00        0.000000000
  13715.00        0.000000000
  13720.00        0.000000000
  13725.00        0.000000000
  13730.00        0.000000000
  13735.00        0.000000000
  13740.00        0.000000000
  13745.00        0.000000000
  13750.00        0.000000000
  13755.00        0.000000000
  13760.00        0.000000000
  13765.00        0.000000000
  13770.00        0.000000000
  13775.00        0.000000000
  13780.00        0.000000000
  13785.00        0.000000000
  13790.00        0.000000000
  13795.00        0.000000000
  13800.00        0.000000000
  13805.00        0.000000000
  13810.00        0.000000000
  13815.00        0.000000000
  13820.00        0.000000000
  13825.00        0.000000000
  13830.00        0.000000000
  13835.00        0.000000000
  13840.00        0.000000000
  13845.00        0.000000000
  13850.00        0.000000000
  13855.00        0.000000000
  13860.00        0.000000000
  13865.00        0.000000000
  13870.00        0.000100000
  13875.00        0.000000000
  13880.00        0.000000000
  13885.00        0.000000000
  13890.00        0.000100000
  13895.00        0.000100000
  13900.00        0.000000000
  13905.00        0.000100000
  13910.00        0.000100000
  13915.00        0.000100000
  13920.00        0.000000000
  13925.00        0.000000000
  13930.00        0.000100000
  13935.00        0.000100000
  13940.00        0.000100000
  13945.00        0.000100000
  13950.00        0.000000000
  13955.00        0.000000000
  13960.00        0.000000000
  13965.00        0.000000000
  13970.00        0.000100000
  13975.00        0.000100000
  13980.00        0.000100000
  13985.00        0.000100000
  13990.00        0.000100000
  13995.00        0.000000000
  14000.00        0.000000000
  14005.00        0.000000000
  14010.00        0.000000000
  14015.00        0.000000000
  14020.00        0.000100000
  14025.00        0.000200000
  14030.00        0.000100000
  14035.00        0.000200000
  14040.00        0.000100000
  14045.00        0.000100000
  14050.00        0.000000000
  14055.00        0.000100000
  14060.00        0.000200000
  14065.00        0.000200000
  14070.00        0.000000000
  14075.00        0.000000000
  14080.00        0.000200000
  14085.00        0.000200000
  14090.00        0.000100000
  14095.00        0.000000000
  14100.00        0.000200000
  14105.00        0.000200000
  14110.00        0.000200000
  14115.00        0.000200000
  14120.00        0.000200000
  14125.00        0.000200000
  14130.00        0.000300000
  14135.00        0.000200000
  14140.00        0.000200000
  14145.00        0.000100000
  14150.00        0.000200000
  14155.00        0.000200000
  14160.00        0.000400000
  14165.00        0.000400000
  14170.00        0.000300000
  14175.00        0.000300000
  14180.00        0.000300000
  14185.00        0.000400000
  14190.00        0.000100000
  14195.00        0.000200000
  14200.00        0.000300000
  14205.00        0.000400000
  14210.00        0.000500000
  14215.00        0.000500000
  14220.00        0.000600000
  14225.00        0.000600000
  14230.00        0.000500000
  14235.00        0.000400000
  14240.00        0.000200000
  14245.00        0.000700000
  14250.00        0.000600000
  14255.00        0.000500000
  14260.00        0.000600000
  14265.00        0.000800000
  14270.00        0.000800000
  14275.00        0.000600000
  14280.00        0.000600000
  14285.00        0.000600000
  14290.00        0.000600000
  14295.00        0.000900000
  14300.00        0.000700000
  14305.00        0.001100000
  14310.00        0.000700000
  14315.00        0.000600000
  14320.00        0.000700000
  14325.00        0.000300000
  14330.00        0.000900000
  14335.00        0.001200000
  14340.00        0.001100000
  14345.00        0.000600000
  14350.00        0.001300000
  14355.00        0.001300000
  14360.00        0.001000000
  14365.00        0.001300000
  14370.00        0.001400000
  14375.00        0.000900000
  14380.00        0.000900000
  14385.00        0.001600000
  14390.00        0.001800000
  14395.00        0.001000000
  14400.00        0.001900000
  14405.00        0.001700000
  14410.00        0.002000000
  14415.00        0.001200000
  14420.00        0.002300000
  14425.00        0.002300000
  14430.00        0.001300000
  14435.00        0.002700000
  14440.00        0.002600000
  14445.00        0.002500000
  14450.00        0.002900000
  14455.00        0.001200000
  14460.00        0.002000000
  14465.00        0.003300000
  14470.00        0.002600000
  14475.00        0.003400000
  14480.00        0.003700000
  14485.00        0.003900000
  14490.00        0.004100000
  14495.00        0.004200000
  14500.00        0.003500000
  14505.00        0.002200000
  14510.00        0.002800000
  14515.00        0.004900000
  14520.00        0.004500000
  14525.00        0.005300000
  14530.00        0.004300000
  14535.00        0.006000000
  14540.00        0.006300000
  14545.00        0.006100000
  14550.00        0.006200000
  14555.00        0.005000000
  14560.00        0.007200000
  14565.00        0.007700000
  14570.00        0.007500000
  14575.00        0.007700000
  14580.00        0.008400000
  14585.00        0.009100000
  14590.00        0.009600000
  14595.00        0.010000000
  14600.00        0.009900000
  14605.00        0.008200000
  14610.00        0.010900000
  14615.00        0.010600000
  14620.00        0.012300000
  14625.00        0.012700000
  14630.00        0.010300000
  14635.00        0.012200000
  14640.00        0.014100000
  14645.00        0.015699999
  14650.00        0.013200000
  14655.00        0.013800000
  14660.00        0.013700000
  14665.00        0.013700000
  14670.00        0.013200000
  14675.00        0.018800000
  14680.00        0.018100001
  14685.00        0.021400001
  14690.00        0.022100000
  14695.00        0.016000001
  14700.00        0.023499999
  14705.00        0.018600000
  14710.00        0.016400000
  14715.00        0.026400000
  14720.00        0.027600000
  14725.00        0.017600000
  14730.00        0.030300001
  14735.00        0.031099999
  14740.00        0.032200001
  14745.00        0.037500001
  14750.00        0.039500002
  14755.00        0.038300000
  14760.00        0.032000002
  14765.00        0.043800000
  14770.00        0.035100002
  14775.00        0.046300001
  14780.00        0.034200002
  14785.00        0.052499998
  14790.00        0.051500000
  14795.00        0.041900001
  14800.00        0.054699998
  14805.00        0.042100001
  14810.00        0.063600004
  14815.00        0.059400000
  14820.00        0.055700000
  14825.00        0.071300000
  14830.00        0.072899997
  14835.00        0.077299997
  14840.00        0.080300003
  14845.00        0.067800000
  14850.00        0.086700000
  14855.00        0.083899997
  14860.00        0.089900002
  14865.00        0.080700003
  14870.00        0.092500001
  14875.00        0.097499996
  14880.00        0.092699997
  14885.00        0.108499996
  14890.00        0.113799997
  14895.00        0.108999997
  14900.00        0.121299997
  14905.00        0.127499998
  14910.00        0.130300000
  14915.00        0.105899997
  14920.00        0.132499993
  14925.00        0.137899995
  14930.00        0.139799997
  14935.00        0.148100004
  14940.00        0.147599995
  14945.00        0.153500006
  14950.00        0.147300005
  14955.00        0.158500001
  14960.00        0.161899999
  14965.00        0.150399998
  14970.00        0.172999993
  14975.00        0.173400000
  14980.00        0.168899998
  14985.00        0.179800004
  14990.00        0.181899995
  14995.00        0.185299993
  15000.00        0.189700007
  15005.00        0.193200007
  15010.00        0.195899993
  15015.00        0.198100001
  15020.00        0.195999995
  15025.00        0.201100007
  15030.00        0.201100007
  15035.00        0.201499999
  15040.00        0.192499995
  15045.00        0.203500003
  15050.00        0.209199995
  15055.00        0.214300007
  15060.00        0.215499997
  15065.00        0.218300000
  15070.00        0.218899995
  15075.00        0.219799995
  15080.00        0.221699998
  15085.00        0.215100005
  15090.00        0.213699996
  15095.00        0.225799993
  15100.00        0.226199999
  15105.00        0.226899996
  15110.00        0.226500005
  15115.00        0.229000002
  15120.00        0.230499998
  15125.00        0.227899998
  15130.00        0.229100004
  15135.00        0.230599999
  15140.00        0.229900002
  15145.00        0.233400002
  15150.00        0.232700005
  15155.00        0.234400004
  15160.00        0.234699994
  15165.00        0.233899996
  15170.00        0.234599993
  15175.00        0.233099997
  15180.00        0.236699998
  15185.00        0.236100003
  15190.00        0.234599993
  15195.00        0.236699998
  15200.00        0.237700000
  15205.00        0.236900002
  15210.00        0.238800004
  15215.00        0.238800004
  15220.00        0.238199994
  15225.00        0.239500001
  15230.00        0.239700004
  15235.00        0.239199996
  15240.00        0.240099996
  15245.00        0.238499999
  15250.00        0.239800006
  15255.00        0.239999995
  15260.00        0.239999995
  15265.00        0.239999995
  15270.00        0.240500003
  15275.00        0.239999995
  15280.00        0.241099998
  15285.00        0.241200000
  15290.00        0.241500005
  15295.00        0.241300002
  15300.00        0.241500005
  15305.00        0.241699994
  15310.00        0.241999999
  15315.00        0.241300002
  15320.00        0.242100000
  15325.00        0.241999999
  15330.00        0.241899997
  15335.00        0.241699994
  15340.00        0.241400003
  15345.00        0.241600007
  15350.00        0.241200000
  15355.00        0.241799995
  15360.00        0.242200002
  15365.00        0.242699996
  15370.00        0.243300006
  15375.00        0.244100004
  15380.00        0.244299993
  15385.00        0.244000003
  15390.00        0.243900001
  15395.00        0.243900001
  15400.00        0.243699998
  15405.00        0.244000003
  15410.00        0.244599998
  15415.00        0.244700000
  15420.00        0.244700000
  15425.00        0.245199993
  15430.00        0.245600000
  15435.00        0.246199995
  15440.00        0.246600002
  15445.00        0.246600002
  15450.00        0.246999994
  15455.00        0.247299999
  15460.00        0.247500002
  15465.00        0.247799993
  15470.00        0.248099998
  15475.00        0.248300001
  15480.00        0.248500004
  15485.00        0.248699993
  15490.00        0.248899996
  15495.00        0.249100000
  15500.00        0.249400005
  15505.00        0.249599993
  15510.00        0.249699995
  15515.00        0.250000000
  15520.00        0.249899998
  15525.00        0.250400007
  15530.00        0.250600010
  15535.00        0.250800014
  15540.00        0.250999987
  15545.00        0.251199991
  15550.00        0.251399994
  15555.00        0.251599997
  15560.00        0.251800001
  15565.00        0.252000004
  15570.00        0.252200007
  15575.00        0.252400011
  15580.00        0.252600014
  15585.00        0.252799988
  15590.00        0.252999991
  15595.00        0.253199995
  15600.00        0.253399998
  15605.00        0.253600001
  15610.00        0.253699988
  15615.00        0.253899992
  15620.00        0.254099995
  15625.00        0.254200011
  15630.00        0.254500002
  15635.00        0.254599988
  15640.00        0.254799992
  15645.00        0.254900008
  15650.00        0.255199999
  15655.00        0.255299985
  15660.00        0.255400002
  15665.00        0.255600005
  15670.00        0.255600005
  15675.00        0.255600005
  15680.00        0.255199999
  15685.00        0.254500002
  15690.00        0.253100008
  15695.00        0.251100004
  15700.00        0.248600006
  15705.00        0.246000007
  15710.00        0.243900001
  15715.00        0.241799995
  15720.00        0.240500003
  15725.00        0.242100000
  15730.00        0.241099998
  15735.00        0.243900001
  15740.00        0.244800001
  15745.00        0.249300003
  15750.00        0.254500002
  15755.00        0.256500006
  15760.00        0.252099991
  15765.00        0.248099998
  15770.00        0.246099994
  15775.00        0.247600004
  15780.00        0.248999998
  15785.00        0.250099987
  15790.00        0.248600006
  15795.00        0.247600004
  15800.00        0.247199997
  15805.00        0.249500006
  15810.00        0.250699997
  15815.00        0.251100004
  15820.00        0.253300011
  15825.00        0.254599988
  15830.00        0.254900008
  15835.00        0.256399989
  15840.00        0.257200003
  15845.00        0.257699996
  15850.00        0.258500010
  15855.00        0.258899987
  15860.00        0.259299994
  15865.00        0.259299994
  15870.00        0.259299994
  15875.00        0.259499997
  15880.00        0.259499997
  15885.00        0.259600013
  15890.00        0.259700000
  15895.00        0.259799987
  15900.00        0.259799987
  15905.00        0.259900004
  15910.00        0.259900004
  15915.00        0.259900004
  15920.00        0.259999990
  15925.00        0.259900004
  15930.00        0.260100007
  15935.00        0.260100007
  15940.00        0.260199994
  15945.00        0.260100007
  15950.00        0.260199994
  15955.00        0.260300010
  15960.00        0.260300010
  15965.00        0.260300010
  15970.00        0.260300010
  15975.00        0.260100007
  15980.00        0.259799987
  15985.00        0.259099990
  15990.00        0.257800013
  15995.00        0.255899996
  16000.00        0.253699988
  16005.00        0.251199991
  16010.00        0.248600006
  16015.00        0.246800005
  16020.00        0.245800003
  16025.00        0.243399993
  16030.00        0.245199993
  16035.00        0.245700002
  16040.00        0.246800005
  16045.00        0.251800001
  16050.00        0.254900008
  16055.00        0.258899987
  16060.00        0.257999986
  16065.00        0.254099995
  16070.00        0.252299994
  16075.00        0.252299994
  16080.00        0.252499998
  16085.00        0.252799988
  16090.00        0.251100004
  16095.00        0.249699995
  16100.00        0.248999998
  16105.00        0.251100004
  16110.00        0.252200007
  16115.00        0.252400011
  16120.00        0.255199999
  16125.00        0.256399989
  16130.00        0.257499993
  16135.00        0.259499997
  16140.00        0.260699987
  16145.00        0.261900008
  16150.00        0.262499988
  16155.00        0.262800008
  16160.00        0.263000011
  16165.00        0.262899995
  16170.00        0.263099998
  16175.00        0.263399988
  16180.00        0.263599992
  16185.00        0.263999999
  16190.00        0.263999999
  16195.00        0.264299989
  16200.00        0.264499992
  16205.00        0.264600009
  16210.00        0.264800012
  16215.00        0.264800012
  16220.00        0.264999986
  16225.00        0.265100002
  16230.00        0.265199989
  16235.00        0.265300006
  16240.00        0.265100002
  16245.00        0.265599996
  16250.00        0.265700012
  16255.00        0.265599996
  16260.00        0.265199989
  16265.00        0.265700012
  16270.00        0.265700012
  16275.00        0.265700012
  16280.00        0.265399992
  16285.00        0.265500009
  16290.00        0.265899986
  16295.00        0.265799999
  16300.00        0.266000003
  16305.00        0.263799995
  16310.00        0.265799999
  16315.00        0.265599996
  16320.00        0.265599996
  16325.00        0.265399992
  16330.00        0.263500005
  16335.00        0.265100002
  16340.00        0.265599996
  16345.00        0.265300006
  16350.00        0.265199989
  16355.00        0.260199994
  16360.00        0.264899999
  16365.00        0.264800012
  16370.00        0.264999986
  16375.00        0.261500001
  16380.00        0.262600005
  16385.00        0.264099985
  16390.00        0.263500005
  16395.00        0.263000011
  16400.00        0.262300014
  16405.00        0.255800009
  16410.00        0.262199998
  16415.00        0.261500001
  16420.00        0.261099994
  16425.00        0.260899991
  16430.00        0.247999996
  16435.00        0.260300010
  16440.00        0.260500014
  16445.00        0.260899991
  16450.00        0.261000007
  16455.00        0.242799997
  16460.00        0.260600001
  16465.00        0.260300010
  16470.00        0.259499997
  16475.00        0.258300006
  16480.00        0.253600001
  16485.00        0.254099995
  16490.00        0.257200003
  16495.00        0.256900012
  16500.00        0.257400006
  16505.00        0.256599993
  16510.00        0.241099998
  16515.00        0.255800009
  16520.00        0.255600005
  16525.00        0.256199986
  16530.00        0.256000012
  16535.00        0.251599997
  16540.00        0.252999991
  16545.00        0.255299985
  16550.00        0.254099995
  16555.00        0.254000008
  16560.00        0.253800005
  16565.00        0.246800005
  16570.00        0.253300011
  16575.00        0.253399998
  16580.00        0.253100008
  16585.00        0.252700001
  16590.00        0.252400011
  16595.00        0.249300003
  16600.00        0.251599997
  16605.00        0.251800001
  16610.00        0.251399994
  16615.00        0.250699997
  16620.00        0.250400007
  16625.00        0.248500004
  16630.00        0.250200003
  16635.00        0.249599993
  16640.00        0.249699995
  16645.00        0.249500006
  16650.00        0.248600006
  16655.00        0.222100005
  16660.00        0.230000004
  16665.00        0.240099996
  16670.00        0.244399995
  16675.00        0.247199997
  16680.00        0.247400001
  16685.00        0.247299999
  16690.00        0.247799993
  16695.00        0.247500002
  16700.00        0.247600004
  16705.00        0.246999994
  16710.00        0.247099996
  16715.00        0.245900005
  16720.00        0.247199997
  16725.00        0.247099996
  16730.00        0.247099996
  16735.00        0.246999994
  16740.00        0.246900007
  16745.00        0.239700004
  16750.00        0.246900007
  16755.00        0.246600002
  16760.00        0.246999994
  16765.00        0.246999994
  16770.00        0.246800005
  16775.00        0.239600003
  16780.00        0.246900007
  16785.00        0.246800005
  16790.00        0.247299999
  16795.00        0.247199997
  16800.00        0.247199997
  16805.00        0.246800005
  16810.00        0.244700000
  16815.00        0.247099996
  16820.00        0.247600004
  16825.00        0.247700006
  16830.00        0.247799993
  16835.00        0.247999996
  16840.00        0.237599999
  16845.00        0.248099998
  16850.00        0.248099998
  16855.00        0.248300001
  16860.00        0.248600006
  16865.00        0.248600006
  16870.00        0.247899994
  16875.00        0.245800003
  16880.00        0.248899996
  16885.00        0.249400005
  16890.00        0.248899996
  16895.00        0.249300003
  16900.00        0.249599993
  16905.00        0.244900003
  16910.00        0.248999998
  16915.00        0.248799995
  16920.00        0.249500006
  16925.00        0.249500006
  16930.00        0.250499994
  16935.00        0.250499994
  16940.00        0.245800003
  16945.00        0.250299990
  16950.00        0.250099987
  16955.00        0.250900000
  16960.00        0.251100004
  16965.00        0.250499994
  16970.00        0.249699995
  16975.00        0.247899994
  16980.00        0.250800014
  16985.00        0.251100004
  16990.00        0.251100004
  16995.00        0.250299990
  17000.00        0.249400005
  17005.00        0.250800014
  17010.00        0.247799993
  17015.00        0.251100004
  17020.00        0.250600010
  17025.00        0.249599993
  17030.00        0.250000000
  17035.00        0.248899996
  17040.00        0.250299990
  17045.00        0.249799997
  17050.00        0.249799997
  17055.00        0.247799993
  17060.00        0.249599993
  17065.00        0.248600006
  17070.00        0.248300001
  17075.00        0.247700006
  17080.00        0.247099996
  17085.00        0.244399995
  17090.00        0.246999994
  17095.00        0.247799993
  17100.00        0.248500004
  17105.00        0.245900005
  17110.00        0.248300001
  17115.00        0.248300001
  17120.00        0.247999996
  17125.00        0.247400001
  17130.00        0.247600004
  17135.00        0.246800005
  17140.00        0.244599998
  17145.00        0.242500007
  17150.00        0.246700004
  17155.00        0.245900005
  17160.00        0.242599994
  17165.00        0.245700002
  17170.00        0.244900003
  17175.00        0.245000005
  17180.00        0.245000005
  17185.00        0.244599998
  17190.00        0.244100004
  17195.00        0.244000003
  17200.00        0.243200004
  17205.00        0.242200002
  17210.00        0.240500003
  17215.00        0.233700007
  17220.00        0.241600007
  17225.00        0.240899995
  17230.00        0.240700006
  17235.00        0.232999995
  17240.00        0.239999995
  17245.00        0.234699994
  17250.00        0.237599999
  17255.00        0.239199996
  17260.00        0.237299994
  17265.00        0.238800004
  17270.00        0.237000003
  17275.00        0.238000005
  17280.00        0.238199994
  17285.00        0.234500006
  17290.00        0.234400004
  17295.00        0.237700000
  17300.00        0.237800002
  17305.00        0.236300007
  17310.00        0.235699996
  17315.00        0.236800000
  17320.00        0.224299997
  17325.00        0.223900005
  17330.00        0.236200005
  17335.00        0.236300007
  17340.00        0.235900000
  17345.00        0.235599995
  17350.00        0.234500006
  17355.00        0.231199995
  17360.00        0.229300007
  17365.00        0.232099995
  17370.00        0.231299996
  17375.00        0.234999999
  17380.00        0.233700007
  17385.00        0.233799994
  17390.00        0.234300002
  17395.00        0.232899994
  17400.00        0.229100004
  17405.00        0.233400002
  17410.00        0.229399994
  17415.00        0.223600000
  17420.00        0.231999993
  17425.00        0.233500004
  17430.00        0.232999995
  17435.00        0.233099997
  17440.00        0.232700005
  17445.00        0.217600003
  17450.00        0.232400000
  17455.00        0.232500002
  17460.00        0.231500000
  17465.00        0.224800006
  17470.00        0.208800003
  17475.00        0.221599996
  17480.00        0.231399998
  17485.00        0.231399998
  17490.00        0.230599999
  17495.00        0.230499998
  17500.00        0.230100006
  17505.00        0.230000004
  17510.00        0.229599997
  17515.00        0.204099998
  17520.00        0.228699997
  17525.00        0.228699997
  17530.00        0.228100002
  17535.00        0.228200004
  17540.00        0.227400005
  17545.00        0.226899996
  17550.00        0.210600004
  17555.00        0.223499998
  17560.00        0.225600004
  17565.00        0.222599998
  17570.00        0.215000004
  17575.00        0.200800002
  17580.00        0.222900003
  17585.00        0.222399995
  17590.00        0.221799999
  17595.00        0.221100003
  17600.00        0.219899997
  17605.00        0.218999997
  17610.00        0.201800004
  17615.00        0.217299998
  17620.00        0.216199994
  17625.00        0.204099998
  17630.00        0.199699998
  17635.00        0.212500006
  17640.00        0.211899996
  17645.00        0.210500002
  17650.00        0.209199995
  17655.00        0.194299996
  17660.00        0.129700005
  17665.00        0.203899994
  17670.00        0.203600004
  17675.00        0.202999994
  17680.00        0.200299993
  17685.00        0.199100003
  17690.00        0.196999997
  17695.00        0.193900004
  17700.00        0.191400006
  17705.00        0.186600000
  17710.00        0.187399998
  17715.00        0.190500006
  17720.00        0.187700003
  17725.00        0.185800001
  17730.00        0.184300005
  17735.00        0.182899997
  17740.00        0.159799993
  17745.00        0.167999998
  17750.00        0.174300000
  17755.00        0.173299998
  17760.00        0.159199998
  17765.00        0.163699999
  17770.00        0.167999998
  17775.00        0.167500004
  17780.00        0.163299993
  17785.00        0.149000004
  17790.00        0.134700000
  17795.00        0.158999994
  17800.00        0.157100007
  17805.00        0.155200005
  17810.00        0.141000003
  17815.00        0.133599997
  17820.00        0.148100004
  17825.00        0.146300003
  17830.00        0.145400003
  17835.00        0.141399994
  17840.00        0.134399995
  17845.00        0.122400001
  17850.00        0.102499999
  17855.00        0.132200003
  17860.00        0.111299999
  17865.00        0.126900002
  17870.00        0.110299997
  17875.00        0.121799998
  17880.00        0.124700002
  17885.00        0.122100003
  17890.00        0.114100002
  17895.00        0.119099997
  17900.00        0.115599997
  17905.00        0.100500003
  17910.00        0.097499996
  17915.00        0.099799998
  17920.00        0.099699996
  17925.00        0.096699998
  17930.00        0.101000004
  17935.00        0.074900001
  17940.00        0.074500002
  17945.00        0.095899999
  17950.00        0.090999998
  17955.00        0.087300003
  17960.00        0.080100000
  17965.00        0.086400002
  17970.00        0.060300000
  17975.00        0.087300003
  17980.00        0.070500001
  17985.00        0.082900003
  17990.00        0.082900003
  17995.00        0.075199999
  18000.00        0.053900000
  18005.00        0.040600002
  18010.00        0.039000001
  18015.00        0.052200001
  18020.00        0.058699999
  18025.00        0.052999999
  18030.00        0.060400002
  18035.00        0.048900001
  18040.00        0.050999999
  18045.00        0.058200002
  18050.00        0.063500002
  18055.00        0.051300000
  18060.00        0.036499999
  18065.00        0.022200000
  18070.00        0.052600000
  18075.00        0.031900000
  18080.00        0.051600002
  18085.00        0.048900001
  18090.00        0.034299999
  18095.00        0.045499999
  18100.00        0.046700001
  18105.00        0.021700000
  18110.00        0.016300000
  18115.00        0.037900001
  18120.00        0.026699999
  18125.00        0.031800002
  18130.00        0.011800000
  18135.00        0.031199999
  18140.00        0.039200000
  18145.00        0.038600001
  18150.00        0.022500001
  18155.00        0.010700000
  18160.00        0.022900000
  18165.00        0.024200000
  18170.00        0.019099999
  18175.00        0.030500000
  18180.00        0.030800000
  18185.00        0.008600000
  18190.00        0.023600001
  18195.00        0.025699999
  18200.00        0.013400000
  18205.00        0.000200000
  18210.00        0.011600000
  18215.00        0.008500000
  18220.00        0.006000000
  18225.00        0.012200000
  18230.00        0.017100001
  18235.00        0.023600001
  18240.00        0.023399999
  18245.00        0.022299999
  18250.00        0.013300000
  18255.00        0.017400000
  18260.00        0.008100000
  18265.00        0.001000000
  18270.00        0.013500000
  18275.00        0.015600000
  18280.00        0.011800000
  18285.00        0.005600000
  18290.00        0.001200000
  18295.00        0.012300000
  18300.00        0.004400000
  18305.00        0.008700000
  18310.00        0.004000000
  18315.00        0.004400000
  18320.00        0.011500000
  18325.00        0.004600000
  18330.00        0.005900000
  18335.00        0.010200000
  18340.00        0.009200000
  18345.00        0.004800000
  18350.00        0.000400000
  18355.00        0.003900000
  18360.00        0.001300000
  18365.00        0.000300000
  18370.00        0.004900000
  18375.00        0.000500000
  18380.00        0.000200000
  18385.00        0.003100000
  18390.00        0.006800000
  18395.00        0.003100000
  18400.00        0.000100000
  18405.00        0.001000000
  18410.00        0.004900000
  18415.00        0.000700000
  18420.00        0.000000000
  18425.00        0.000200000
  18430.00        0.004800000
  18435.00        0.003000000
  18440.00        0.002600000
  18445.00        0.006400000
  18450.00        0.006300000
  18455.00        0.006100000
  18460.00        0.004000000
  18465.00        0.000700000
  18470.00        0.000000000
  18475.00        0.000400000
  18480.00        0.000100000
  18485.00        0.000100000
  18490.00        0.001300000
  18495.00        0.003000000
  18500.00        0.002400000
  18505.00        0.000600000
  18510.00        0.001600000
  18515.00        0.004700000
  18520.00        0.004500000
  18525.00        0.003100000
  18530.00        0.000100000
  18535.00        0.000900000
  18540.00        0.000000000
  18545.00        0.001300000
  18550.00        0.001700000
  18555.00        0.003400000
  18560.00        0.002200000
  18565.00        0.000300000
  18570.00        0.000400000
  18575.00        0.000400000
  18580.00        0.002800000
  18585.00        0.002700000
  18590.00        0.002300000
  18595.00        0.000300000
  18600.00        0.000100000
  18605.00        0.000100000
  18610.00        0.000600000
  18615.00        0.002300000
  18620.00        0.002900000
  18625.00        0.002500000
  18630.00        0.001500000
  18635.00        0.002500000
  18640.00        0.001300000
  18645.00        0.000500000
  18650.00        0.001100000
  18655.00        0.002000000
  18660.00        0.002600000
  18665.00        0.002200000
  18670.00        0.001400000
  18675.00        0.000100000
  18680.00        0.000000000
  18685.00        0.000700000
  18690.00        0.000800000
  18695.00        0.000200000
  18700.00        0.000300000
  18705.00        0.000400000
  18710.00        0.000000000
  18715.00        0.000000000
  18720.00        0.000600000
  18725.00        0.000800000
  18730.00        0.000000000
  18735.00        0.000000000
  18740.00        0.000000000
  18745.00        0.000600000
  18750.00        0.000600000
  18755.00        0.000100000
  18760.00        0.000700000
  18765.00        0.000600000
  18770.00        0.000000000
  18775.00        0.000400000
  18780.00        0.001000000
  18785.00        0.001000000
  18790.00        0.001600000
  18795.00        0.000800000
  18800.00        0.001600000
  18805.00        0.000600000
  18810.00        0.000200000
  18815.00        0.000700000
  18820.00        0.001300000
  18825.00        0.001400000
  18830.00        0.001300000
  18835.00        0.000900000
  18840.00        0.000100000
  18845.00        0.000300000
  18850.00        0.001000000
  18855.00        0.000700000
  18860.00        0.001100000
  18865.00        0.000900000
  18870.00        0.000300000
  18875.00        0.001100000
  18880.00        0.001300000
  18885.00        0.001200000
  18890.00        0.001200000
  18895.00        0.000800000
  18900.00        0.000100000
  18905.00        0.000100000
  18910.00        0.000800000
  18915.00        0.000700000
  18920.00        0.000300000
  18925.00        0.000300000
  18930.00        0.000400000
  18935.00        0.000500000
  18940.00        0.000200000
  18945.00        0.000900000
  18950.00        0.000800000
  18955.00        0.001100000
  18960.00        0.000700000
  18965.00        0.000600000
  18970.00        0.000900000
  18975.00        0.000400000
  18980.00        0.000100000
  18985.00        0.000500000
  18990.00        0.000100000
  18995.00        0.000000000
  19000.00        0.000100000
  19005.00        0.000000000
  19010.00        0.000200000
  19015.00        0.000500000
  19020.00        0.000700000
  19025.00        0.000300000
  19030.00        0.000000000
  19035.00        0.000300000
  19040.00        0.000600000
  19045.00        0.000400000
  19050.00        0.000200000
  19055.00        0.000000000
  19060.00        0.000100000
  19065.00        0.000100000
  19070.00        0.000000000
  19075.00        0.000500000
  19080.00        0.000700000
  19085.00        0.000700000
  19090.00        0.000200000
  19095.00        0.000700000
  19100.00        0.000500000
  19105.00        0.000200000
  19110.00        0.000400000
  19115.00        0.000000000
  19120.00        0.000200000
  19125.00        0.000300000
  19130.00        0.000400000
  19135.00        0.000000000
  19140.00        0.000100000
  19145.00        0.000200000
  19150.00        0.000300000
  19155.00        0.000600000
  19160.00        0.000200000
  19165.00        0.000100000
  19170.00        0.000300000
  19175.00        0.000600000
  19180.00        0.000600000
  19185.00        0.000600000
  19190.00        0.000500000
  19195.00        0.000200000
  19200.00        0.000000000
  19205.00        0.000000000
  19210.00        0.000000000
  19215.00        0.000300000
  19220.00        0.000500000
  19225.00        0.000600000
  19230.00        0.000500000
  19235.00        0.000500000
  19240.00        0.000000000
  19245.00        0.000100000
  19250.00        0.000400000
  19255.00        0.000500000
  19260.00        0.000400000
  19265.00        0.000500000
  19270.00        0.000100000
  19275.00        0.000200000
  19280.00        0.000400000
  19285.00        0.000100000
  19290.00        0.000300000
  19295.00        0.000500000
  19300.00        0.000400000
  19305.00        0.000200000
  19310.00        0.000100000
  19315.00        0.000300000
  19320.00        0.000200000
  19325.00        0.000500000
  19330.00        0.000300000
  19335.00        0.000400000
  19340.00        0.000100000
  19345.00        0.000300000
  19350.00        0.000400000
  19355.00        0.000400000
  19360.00        0.000400000
  19365.00        0.000200000
  19370.00        0.000400000
  19375.00        0.000400000
  19380.00        0.000200000
  19385.00        0.000400000
  19390.00        0.000200000
  19395.00        0.000200000
  19400.00        0.000200000
  19405.00        0.000400000
  19410.00        0.000200000
  19415.00        0.000200000
  19420.00        0.000300000
  19425.00        0.000400000
  19430.00        0.000400000
  19435.00        0.000300000
  19440.00        0.000300000
  19445.00        0.000200000
  19450.00        0.000200000
  19455.00        0.000300000
  19460.00        0.000300000
  19465.00        0.000300000
  19470.00        0.000300000
  19475.00        0.000300000
  19480.00        0.000300000
  19485.00        0.000200000
  19490.00        0.000300000
  19495.00        0.000200000
  19500.00        0.000200000
