# Table 4 System throughput curve for the WFCAM J filter
# 1.0mm water vapour, 1.3 airmass
# Col 1: wavelength (microns)
# Col 2: throughput
#
  10510.00        0.000000000
  10515.00        0.000000000
  10520.00        0.000000000
  10525.00        0.000000000
  10530.00        0.000000000
  10535.00        0.000000000
  10540.00        0.000000000
  10545.00        0.000000000
  10550.00        0.000000000
  10555.00        0.000000000
  10560.00        0.000000000
  10565.00        0.000000000
  10570.00        0.000000000
  10575.00        0.000000000
  10580.00        0.000000000
  10585.00        0.000000000
  10590.00        0.000000000
  10595.00        0.000000000
  10600.00        0.000000000
  10605.00        0.000000000
  10610.00        0.000000000
  10615.00        0.000000000
  10620.00        0.000000000
  10625.00        0.000000000
  10630.00        0.000000000
  10635.00        0.000000000
  10640.00        0.000000000
  10645.00        0.000000000
  10650.00        0.000000000
  10655.00        0.000000000
  10660.00        0.000000000
  10665.00        0.000000000
  10670.00        0.000000000
  10675.00        0.000000000
  10680.00        0.000000000
  10685.00        0.000000000
  10690.00        0.000000000
  10695.00        0.000000000
  10700.00        0.000000000
  10705.00        0.000000000
  10710.00        0.000000000
  10715.00        0.000000000
  10720.00        0.000000000
  10725.00        0.000000000
  10730.00        0.000000000
  10735.00        0.000000000
  10740.00        0.000000000
  10745.00        0.000000000
  10750.00        0.000000000
  10755.00        0.000000000
  10760.00        0.000000000
  10765.00        0.000000000
  10770.00        0.000000000
  10775.00        0.000000000
  10780.00        0.000000000
  10785.00        0.000000000
  10790.00        0.000000000
  10795.00        0.000000000
  10800.00        0.000000000
  10805.00        0.000000000
  10810.00        0.000000000
  10815.00        0.000000000
  10820.00        0.000000000
  10825.00        0.000000000
  10830.00        0.000000000
  10835.00        0.000000000
  10840.00        0.000000000
  10845.00        0.000000000
  10850.00        0.000000000
  10855.00        0.000000000
  10860.00        0.000000000
  10865.00        0.000000000
  10870.00        0.000000000
  10875.00        0.000000000
  10880.00        0.000000000
  10885.00        0.000000000
  10890.00        0.000000000
  10895.00        0.000000000
  10900.00        0.000000000
  10905.00        0.000000000
  10910.00        0.000000000
  10915.00        0.000000000
  10920.00        0.000000000
  10925.00        0.000000000
  10930.00        0.000000000
  10935.00        0.000000000
  10940.00        0.000000000
  10945.00        0.000000000
  10950.00        0.000000000
  10955.00        0.000000000
  10960.00        0.000000000
  10965.00        0.000000000
  10970.00        0.000000000
  10975.00        0.000000000
  10980.00        0.000000000
  10985.00        0.000000000
  10990.00        0.000000000
  10995.00        0.000000000
  11000.00        0.000000000
  11005.00        0.000100000
  11010.00        0.000100000
  11015.00        0.000100000
  11020.00        0.000100000
  11025.00        0.000100000
  11030.00        0.000100000
  11035.00        0.000100000
  11040.00        0.000100000
  11045.00        0.000100000
  11050.00        0.000100000
  11055.00        0.000100000
  11060.00        0.000100000
  11065.00        0.000100000
  11070.00        0.000100000
  11075.00        0.000100000
  11080.00        0.000100000
  11085.00        0.000100000
  11090.00        0.000100000
  11095.00        0.000100000
  11100.00        0.000100000
  11105.00        0.000100000
  11110.00        0.000100000
  11115.00        0.000100000
  11120.00        0.000100000
  11125.00        0.000100000
  11130.00        0.000100000
  11135.00        0.000100000
  11140.00        0.000100000
  11145.00        0.000100000
  11150.00        0.000100000
  11155.00        0.000100000
  11160.00        0.000100000
  11165.00        0.000100000
  11170.00        0.000100000
  11175.00        0.000100000
  11180.00        0.000200000
  11185.00        0.000200000
  11190.00        0.000100000
  11195.00        0.000200000
  11200.00        0.000200000
  11205.00        0.000200000
  11210.00        0.000200000
  11215.00        0.000200000
  11220.00        0.000200000
  11225.00        0.000100000
  11230.00        0.000200000
  11235.00        0.000200000
  11240.00        0.000300000
  11245.00        0.000300000
  11250.00        0.000300000
  11255.00        0.000100000
  11260.00        0.000300000
  11265.00        0.000300000
  11270.00        0.000400000
  11275.00        0.000300000
  11280.00        0.000300000
  11285.00        0.000300000
  11290.00        0.000400000
  11295.00        0.000400000
  11300.00        0.000400000
  11305.00        0.000500000
  11310.00        0.000600000
  11315.00        0.000600000
  11320.00        0.000600000
  11325.00        0.000600000
  11330.00        0.000700000
  11335.00        0.000500000
  11340.00        0.000600000
  11345.00        0.000500000
  11350.00        0.000400000
  11355.00        0.000800000
  11360.00        0.000600000
  11365.00        0.001000000
  11370.00        0.001100000
  11375.00        0.001000000
  11380.00        0.001200000
  11385.00        0.001000000
  11390.00        0.001400000
  11395.00        0.001500000
  11400.00        0.001300000
  11405.00        0.001700000
  11410.00        0.001400000
  11415.00        0.001500000
  11420.00        0.001900000
  11425.00        0.002100000
  11430.00        0.002200000
  11435.00        0.002400000
  11440.00        0.002300000
  11445.00        0.002100000
  11450.00        0.002300000
  11455.00        0.002500000
  11460.00        0.002800000
  11465.00        0.002800000
  11470.00        0.003100000
  11475.00        0.003000000
  11480.00        0.004400000
  11485.00        0.004600000
  11490.00        0.004400000
  11495.00        0.004900000
  11500.00        0.004600000
  11505.00        0.006200000
  11510.00        0.006200000
  11515.00        0.006900000
  11520.00        0.006400000
  11525.00        0.007000000
  11530.00        0.008700000
  11535.00        0.009500000
  11540.00        0.009100000
  11545.00        0.010400000
  11550.00        0.011700000
  11555.00        0.012800000
  11560.00        0.013800000
  11565.00        0.014900000
  11570.00        0.017200001
  11575.00        0.018200001
  11580.00        0.018700000
  11585.00        0.021600001
  11590.00        0.021100000
  11595.00        0.025500000
  11600.00        0.027700000
  11605.00        0.028300000
  11610.00        0.033199999
  11615.00        0.035200000
  11620.00        0.039200000
  11625.00        0.041000001
  11630.00        0.046599999
  11635.00        0.049600001
  11640.00        0.053500000
  11645.00        0.058600001
  11650.00        0.061700001
  11655.00        0.067000002
  11660.00        0.070799999
  11665.00        0.077500001
  11670.00        0.082400002
  11675.00        0.089299999
  11680.00        0.094700001
  11685.00        0.098899998
  11690.00        0.106299996
  11695.00        0.110299997
  11700.00        0.117500000
  11705.00        0.121200003
  11710.00        0.126100004
  11715.00        0.133200005
  11720.00        0.136800006
  11725.00        0.139899999
  11730.00        0.144500002
  11735.00        0.148499995
  11740.00        0.144500002
  11745.00        0.155200005
  11750.00        0.159099996
  11755.00        0.157199994
  11760.00        0.164000005
  11765.00        0.165600002
  11770.00        0.167300001
  11775.00        0.161300004
  11780.00        0.167199999
  11785.00        0.167099997
  11790.00        0.171800002
  11795.00        0.165999994
  11800.00        0.171599999
  11805.00        0.173400000
  11810.00        0.172900006
  11815.00        0.171299994
  11820.00        0.160699993
  11825.00        0.172900006
  11830.00        0.174799994
  11835.00        0.175099999
  11840.00        0.174700007
  11845.00        0.170800000
  11850.00        0.168799996
  11855.00        0.176200002
  11860.00        0.175799996
  11865.00        0.175099999
  11870.00        0.175500005
  11875.00        0.171900004
  11880.00        0.172399998
  11885.00        0.171800002
  11890.00        0.176400006
  11895.00        0.177200004
  11900.00        0.177699998
  11905.00        0.176899999
  11910.00        0.176100001
  11915.00        0.178299993
  11920.00        0.176799998
  11925.00        0.178399995
  11930.00        0.178499997
  11935.00        0.172399998
  11940.00        0.178599998
  11945.00        0.177200004
  11950.00        0.176699996
  11955.00        0.176400006
  11960.00        0.177699998
  11965.00        0.176799998
  11970.00        0.177699998
  11975.00        0.173700005
  11980.00        0.177900001
  11985.00        0.175899997
  11990.00        0.172700003
  11995.00        0.176799998
  12000.00        0.176400006
  12005.00        0.176300004
  12010.00        0.175500005
  12015.00        0.175799996
  12020.00        0.173600003
  12025.00        0.176799998
  12030.00        0.176699996
  12035.00        0.172900006
  12040.00        0.168300003
  12045.00        0.175500005
  12050.00        0.170699999
  12055.00        0.177699998
  12060.00        0.178100005
  12065.00        0.175699994
  12070.00        0.176499993
  12075.00        0.176499993
  12080.00        0.177399993
  12085.00        0.179100007
  12090.00        0.177800000
  12095.00        0.180800006
  12100.00        0.178700000
  12105.00        0.182699993
  12110.00        0.182899997
  12115.00        0.180500001
  12120.00        0.183699995
  12125.00        0.183599994
  12130.00        0.185900003
  12135.00        0.187199995
  12140.00        0.185900003
  12145.00        0.187199995
  12150.00        0.187299997
  12155.00        0.188199997
  12160.00        0.190799996
  12165.00        0.190799996
  12170.00        0.190599993
  12175.00        0.192800000
  12180.00        0.191599995
  12185.00        0.192100003
  12190.00        0.191499993
  12195.00        0.192699999
  12200.00        0.193900004
  12205.00        0.194499999
  12210.00        0.195400000
  12215.00        0.193800002
  12220.00        0.194600001
  12225.00        0.194100007
  12230.00        0.195199996
  12235.00        0.194700003
  12240.00        0.195299998
  12245.00        0.195099995
  12250.00        0.195400000
  12255.00        0.194700003
  12260.00        0.194900006
  12265.00        0.194900006
  12270.00        0.192900002
  12275.00        0.194100007
  12280.00        0.194000006
  12285.00        0.193900004
  12290.00        0.193200007
  12295.00        0.192499995
  12300.00        0.192599997
  12305.00        0.192499995
  12310.00        0.192200005
  12315.00        0.191900000
  12320.00        0.191599995
  12325.00        0.191300005
  12330.00        0.190899998
  12335.00        0.190599993
  12340.00        0.190899998
  12345.00        0.190699995
  12350.00        0.190599993
  12355.00        0.190599993
  12360.00        0.190699995
  12365.00        0.190699995
  12370.00        0.190799996
  12375.00        0.191000000
  12380.00        0.191200003
  12385.00        0.191499993
  12390.00        0.191799998
  12395.00        0.192100003
  12400.00        0.192499995
  12405.00        0.192800000
  12410.00        0.193299994
  12415.00        0.193800002
  12420.00        0.194299996
  12425.00        0.194900006
  12430.00        0.195400000
  12435.00        0.195999995
  12440.00        0.196600005
  12445.00        0.197200000
  12450.00        0.197799996
  12455.00        0.198400006
  12460.00        0.199000001
  12465.00        0.199499995
  12470.00        0.200200006
  12475.00        0.200800002
  12480.00        0.201000005
  12485.00        0.201800004
  12490.00        0.202299997
  12495.00        0.202099994
  12500.00        0.203199998
  12505.00        0.203600004
  12510.00        0.202600002
  12515.00        0.204200000
  12520.00        0.204500005
  12525.00        0.202900007
  12530.00        0.204799995
  12535.00        0.204999998
  12540.00        0.203500003
  12545.00        0.204699993
  12550.00        0.205100000
  12555.00        0.204400003
  12560.00        0.202700004
  12565.00        0.204899997
  12570.00        0.204699993
  12575.00        0.196799994
  12580.00        0.204300001
  12585.00        0.203799993
  12590.00        0.195800006
  12595.00        0.202600002
  12600.00        0.201800004
  12605.00        0.199000001
  12610.00        0.194900006
  12615.00        0.197500005
  12620.00        0.196099997
  12625.00        0.184400007
  12630.00        0.194600001
  12635.00        0.190699995
  12640.00        0.188899994
  12645.00        0.188299999
  12650.00        0.188099995
  12655.00        0.194800004
  12660.00        0.176499993
  12665.00        0.189500004
  12670.00        0.191799998
  12675.00        0.191599995
  12680.00        0.198899999
  12685.00        0.150399998
  12690.00        0.147799999
  12695.00        0.180600002
  12700.00        0.192699999
  12705.00        0.197300002
  12710.00        0.194700003
  12715.00        0.199399993
  12720.00        0.194199994
  12725.00        0.199499995
  12730.00        0.194800004
  12735.00        0.203700006
  12740.00        0.196199998
  12745.00        0.201700002
  12750.00        0.198200002
  12755.00        0.206499994
  12760.00        0.200800002
  12765.00        0.202099994
  12770.00        0.205200002
  12775.00        0.205400005
  12780.00        0.209099993
  12785.00        0.203199998
  12790.00        0.210400000
  12795.00        0.209000006
  12800.00        0.210800007
  12805.00        0.208000004
  12810.00        0.211099997
  12815.00        0.212400004
  12820.00        0.212300003
  12825.00        0.210099995
  12830.00        0.213200003
  12835.00        0.213200003
  12840.00        0.213400006
  12845.00        0.211300001
  12850.00        0.213599995
  12855.00        0.213699996
  12860.00        0.213599995
  12865.00        0.212799996
  12870.00        0.213200003
  12875.00        0.213200003
  12880.00        0.212899998
  12885.00        0.212500006
  12890.00        0.211300001
  12895.00        0.211899996
  12900.00        0.211500004
  12905.00        0.211300001
  12910.00        0.210500002
  12915.00        0.209999993
  12920.00        0.209199995
  12925.00        0.209399998
  12930.00        0.209000006
  12935.00        0.208700001
  12940.00        0.207800001
  12945.00        0.207699999
  12950.00        0.207000002
  12955.00        0.205799997
  12960.00        0.205899999
  12965.00        0.205699995
  12970.00        0.204999998
  12975.00        0.203400001
  12980.00        0.204300001
  12985.00        0.204500005
  12990.00        0.204400003
  12995.00        0.201700002
  13000.00        0.203199998
  13005.00        0.200800002
  13010.00        0.200700000
  13015.00        0.203400001
  13020.00        0.203400001
  13025.00        0.202800006
  13030.00        0.201800004
  13035.00        0.197300002
  13040.00        0.200100005
  13045.00        0.199399993
  13050.00        0.203799993
  13055.00        0.202299997
  13060.00        0.204300001
  13065.00        0.198799998
  13070.00        0.202399999
  13075.00        0.204999998
  13080.00        0.197799996
  13085.00        0.205699995
  13090.00        0.205699995
  13095.00        0.201199993
  13100.00        0.201199993
  13105.00        0.197799996
  13110.00        0.205899999
  13115.00        0.207499996
  13120.00        0.206000000
  13125.00        0.204099998
  13130.00        0.200599998
  13135.00        0.197999999
  13140.00        0.202299997
  13145.00        0.202399999
  13150.00        0.200700000
  13155.00        0.198599994
  13160.00        0.202399999
  13165.00        0.202099994
  13170.00        0.186199993
  13175.00        0.198899999
  13180.00        0.195600003
  13185.00        0.188099995
  13190.00        0.187600002
  13195.00        0.182999998
  13200.00        0.171599999
  13205.00        0.175699994
  13210.00        0.177000001
  13215.00        0.164800003
  13220.00        0.168699995
  13225.00        0.162799999
  13230.00        0.151600003
  13235.00        0.155300006
  13240.00        0.143999994
  13245.00        0.144899994
  13250.00        0.142199993
  13255.00        0.129800007
  13260.00        0.130500004
  13265.00        0.124700002
  13270.00        0.113899998
  13275.00        0.114299998
  13280.00        0.107500002
  13285.00        0.096199997
  13290.00        0.092900001
  13295.00        0.093599997
  13300.00        0.086800002
  13305.00        0.084700003
  13310.00        0.076399997
  13315.00        0.069499999
  13320.00        0.065800004
  13325.00        0.055199999
  13330.00        0.064099997
  13335.00        0.058800001
  13340.00        0.052200001
  13345.00        0.055399999
  13350.00        0.048799999
  13355.00        0.049500000
  13360.00        0.037000000
  13365.00        0.044399999
  13370.00        0.038899999
  13375.00        0.034200002
  13380.00        0.032800000
  13385.00        0.035300002
  13390.00        0.032299999
  13395.00        0.030600000
  13400.00        0.028200001
  13405.00        0.023300000
  13410.00        0.026500000
  13415.00        0.022200000
  13420.00        0.023800001
  13425.00        0.022000000
  13430.00        0.020900000
  13435.00        0.020000000
  13440.00        0.014400000
  13445.00        0.013800000
  13450.00        0.016200000
  13455.00        0.013900000
  13460.00        0.013600000
  13465.00        0.010600000
  13470.00        0.013300000
  13475.00        0.010900000
  13480.00        0.007000000
  13485.00        0.006300000
  13490.00        0.008100000
  13495.00        0.010000000
  13500.00        0.007500000
  13505.00        0.004200000
  13510.00        0.007300000
  13515.00        0.005100000
  13520.00        0.005500000
  13525.00        0.003700000
  13530.00        0.003300000
  13535.00        0.004000000
  13540.00        0.004600000
  13545.00        0.002000000
  13550.00        0.001100000
  13555.00        0.003200000
  13560.00        0.002000000
  13565.00        0.003900000
  13570.00        0.001700000
  13575.00        0.001600000
  13580.00        0.002600000
  13585.00        0.001000000
  13590.00        0.002200000
  13595.00        0.000300000
  13600.00        0.001900000
  13605.00        0.001500000
  13610.00        0.000200000
  13615.00        0.000500000
  13620.00        0.000100000
  13625.00        0.000100000
  13630.00        0.001200000
  13635.00        0.001500000
  13640.00        0.001000000
  13645.00        0.000300000
  13650.00        0.000400000
  13655.00        0.000100000
  13660.00        0.001600000
  13665.00        0.001500000
  13670.00        0.000600000
  13675.00        0.000300000
  13680.00        0.000300000
  13685.00        0.000100000
  13690.00        0.000700000
  13695.00        0.001000000
  13700.00        0.000100000
  13705.00        0.000700000
  13710.00        0.000100000
  13715.00        0.000700000
  13720.00        0.000500000
  13725.00        0.000800000
  13730.00        0.000700000
  13735.00        0.000600000
  13740.00        0.000900000
  13745.00        0.000500000
  13750.00        0.000400000
  13755.00        0.001100000
  13760.00        0.000400000
  13765.00        0.000700000
  13770.00        0.000200000
  13775.00        0.000900000
  13780.00        0.000800000
  13785.00        0.000300000
  13790.00        0.000300000
  13795.00        0.000700000
  13800.00        0.000400000
  13805.00        0.000100000
  13810.00        0.000100000
  13815.00        0.000500000
  13820.00        0.000200000
  13825.00        0.000000000
  13830.00        0.000000000
  13835.00        0.000200000
  13840.00        0.000200000
  13845.00        0.000300000
  13850.00        0.000100000
  13855.00        0.000200000
  13860.00        0.000300000
  13865.00        0.000200000
  13870.00        0.000400000
  13875.00        0.000400000
  13880.00        0.000000000
  13885.00        0.000200000
  13890.00        0.000300000
  13895.00        0.000500000
  13900.00        0.000200000
  13905.00        0.000400000
  13910.00        0.000300000
  13915.00        0.000400000
  13920.00        0.000200000
  13925.00        0.000000000
  13930.00        0.000200000
  13935.00        0.000300000
  13940.00        0.000200000
  13945.00        0.000200000
  13950.00        0.000000000
  13955.00        0.000000000
  13960.00        0.000100000
  13965.00        0.000000000
  13970.00        0.000200000
  13975.00        0.000300000
  13980.00        0.000300000
  13985.00        0.000200000
  13990.00        0.000200000
  13995.00        0.000100000
  14000.00        0.000100000
  14005.00        0.000000000
  14010.00        0.000100000
  14015.00        0.000000000
  14020.00        0.000200000
  14025.00        0.000300000
  14030.00        0.000100000
  14035.00        0.000200000
  14040.00        0.000100000
  14045.00        0.000100000
  14050.00        0.000000000
  14055.00        0.000100000
  14060.00        0.000200000
  14065.00        0.000200000
  14070.00        0.000000000
  14075.00        0.000000000
  14080.00        0.000200000
  14085.00        0.000100000
  14090.00        0.000100000
  14095.00        0.000000000
  14100.00        0.000100000
  14105.00        0.000100000
  14110.00        0.000100000
  14115.00        0.000100000
  14120.00        0.000100000
  14125.00        0.000100000
  14130.00        0.000200000
  14135.00        0.000100000
  14140.00        0.000100000
  14145.00        0.000100000
  14150.00        0.000100000
  14155.00        0.000100000
  14160.00        0.000100000
  14165.00        0.000100000
  14170.00        0.000100000
  14175.00        0.000100000
  14180.00        0.000100000
  14185.00        0.000100000
  14190.00        0.000000000
  14195.00        0.000100000
  14200.00        0.000100000
  14205.00        0.000100000
  14210.00        0.000100000
  14215.00        0.000100000
  14220.00        0.000100000
  14225.00        0.000100000
  14230.00        0.000100000
  14235.00        0.000100000
  14240.00        0.000000000
  14245.00        0.000100000
  14250.00        0.000100000
  14255.00        0.000100000
  14260.00        0.000100000
  14265.00        0.000100000
  14270.00        0.000100000
  14275.00        0.000100000
  14280.00        0.000100000
  14285.00        0.000100000
  14290.00        0.000100000
  14295.00        0.000100000
  14300.00        0.000100000
  14305.00        0.000100000
  14310.00        0.000100000
  14315.00        0.000000000
  14320.00        0.000100000
  14325.00        0.000000000
  14330.00        0.000100000
  14335.00        0.000100000
  14340.00        0.000100000
  14345.00        0.000000000
  14350.00        0.000100000
  14355.00        0.000100000
  14360.00        0.000000000
  14365.00        0.000100000
  14370.00        0.000100000
  14375.00        0.000000000
  14380.00        0.000000000
  14385.00        0.000100000
  14390.00        0.000100000
  14395.00        0.000000000
  14400.00        0.000100000
  14405.00        0.000100000
  14410.00        0.000100000
  14415.00        0.000000000
  14420.00        0.000100000
  14425.00        0.000100000
  14430.00        0.000000000
  14435.00        0.000100000
  14440.00        0.000100000
  14445.00        0.000000000
  14450.00        0.000100000
  14455.00        0.000000000
  14460.00        0.000000000
  14465.00        0.000100000
  14470.00        0.000000000
  14475.00        0.000100000
  14480.00        0.000100000
  14485.00        0.000100000
  14490.00        0.000100000
  14495.00        0.000100000
